loggingTime(txt),accelerometerTimestamp_sinceReboot(s),accelerometerAccelerationX(G),accelerometerAccelerationY(G),accelerometerAccelerationZ(G),motionTimestamp_sinceReboot(s),motionYaw(rad),motionRoll(rad),motionPitch(rad),motionRotationRateX(rad/s),motionRotationRateY(rad/s),motionRotationRateZ(rad/s),motionUserAccelerationX(G),motionUserAccelerationY(G),motionUserAccelerationZ(G),motionAttitudeReferenceFrame(txt),motionQuaternionX(R),motionQuaternionY(R),motionQuaternionZ(R),motionQuaternionW(R),motionGravityX(G),motionGravityY(G),motionGravityZ(G),motionMagneticFieldX(µT),motionMagneticFieldY(µT),motionMagneticFieldZ(µT),motionHeading(°),motionMagneticFieldCalibrationAccuracy(Z),activityTimestamp_sinceReboot(s),activity(txt),activityActivityConfidence(Z),activityActivityStartDate(txt),pedometerStartDate(txt),pedometerNumberofSteps(N),pedometerAverageActivePace(s/m),pedometerCurrentPace(s/m),pedometerCurrentCadence(steps/s),pedometerDistance(m),pedometerFloorAscended(N),pedometerFloorDescended(N),pedometerEndDate(txt),altimeterTimestamp_sinceReboot(s),altimeterReset(bool),altimeterRelativeAltitude(m),altimeterPressure(kPa)
2024-04-18T12:49:10.685+02:00,12947.65442804167,-0.01678466796875,-0.079864501953125,-0.9708404541015625,12947.60453904167,0.0112754712215563,-0.008904443867234116,0.05614716786176796,-0.06054352223873138,0.7375842332839966,0.01562968641519547,-0.02220712415874004,-0.028889000415802,-0.04607951641082764,XArbitraryZVertical,0.02809426100059249,-0.004292133696423488,0.005510457127378795,0.9995809295040827,-0.008890294469892979,-0.05611767247319221,-0.9983845949172974,0,0,0,-1,-1,12946.5868005,unknown,2,2024-04-18T12:49:09.530+02:00,2024-04-17T14:37:41.930+02:00,4191,1.185061,0,0,3466.396,19,7,2024-04-18T12:07:18.770+02:00,735130149.5892447,0,-54.78999,100.9387
2024-04-18T12:49:10.693+02:00,12947.68935004167,0.0079345703125,-0.0553131103515625,-1.022430419921875,12947.66440604167,0.01033464562283658,0.004077009566212059,0.05594929635974352,-0.006771149579435587,-0.02261465415358543,-0.03342113643884659,-0.02085529267787933,-0.02394434809684753,0.02758651971817017,XArbitraryZVertical,0.02796003654895451,0.002182212630786677,0.005222285123706826,0.9995930916456645,0.004070618655532598,-0.05592011287808418,-0.9984269738197327,0,0,0,-1,-1,12946.5868005,unknown,2,2024-04-18T12:49:09.530+02:00,2024-04-17T14:37:41.930+02:00,4191,1.185061,0,0,3466.396,19,7,2024-04-18T12:07:18.770+02:00,735130149.5892447,0,-54.78999,100.9387
2024-04-18T12:49:10.695+02:00,12947.72427204167,0.017059326171875,-0.069488525390625,-1.002853393554688,12947.66440604167,0.01033464562283658,0.004077009566212059,0.05594929635974352,-0.006771149579435587,-0.02261465415358543,-0.03342113643884659,-0.02085529267787933,-0.02394434809684753,0.02758651971817017,XArbitraryZVertical,0.02796003654895451,0.002182212630786677,0.005222285123706826,0.9995930916456645,0.004070618655532598,-0.05592011287808418,-0.9984269738197327,0,0,0,-1,-1,12946.5868005,unknown,2,2024-04-18T12:49:09.530+02:00,2024-04-17T14:37:41.930+02:00,4191,1.185061,0,0,3466.396,19,7,2024-04-18T12:07:18.770+02:00,735130149.5892447,0,-54.78999,100.9387
2024-04-18T12:49:10.709+02:00,12947.75919504167,0.0098114013671875,-0.069610595703125,-0.9911956787109375,12947.72427204167,0.009482657283119495,0.007767197854541327,0.05679121668132702,0.008221693336963654,0.07652130722999573,0.0146184079349041,0.00632925983518362,-0.004518561065196991,-0.002451002597808838,XArbitraryZVertical,0.02837285274505738,0.004016593141505655,0.004849624475361909,0.9995775998352369,0.007754597812891006,-0.05676069483160973,-0.9983577132225037,0,0,0,-1,-1,12946.5868005,unknown,2,2024-04-18T12:49:09.530+02:00,2024-04-17T14:37:41.930+02:00,4191,1.185061,0,0,3466.396,19,7,2024-04-18T12:07:18.770+02:00,735130149.5892447,0,-54.78999,100.9387
2024-04-18T12:49:10.738+02:00,12947.79411704167,0.0077362060546875,-0.0660552978515625,-1.020538330078125,12947.78413904167,0.009547913515777284,0.007952726170628041,0.05722744201403864,-0.02529085986316204,0.05573653057217598,-0.006946805864572525,-0.0007985159754753113,-0.01664102822542191,-0.003286063671112061,XArbitraryZVertical,0.02859028804932477,0.00411125984854452,0.004885707907202188,0.9995708637957056,0.007939623668789864,-0.05719621106982231,-0.9983313679695129,0,0,0,-1,-1,12946.5868005,unknown,2,2024-04-18T12:49:09.530+02:00,2024-04-17T14:37:41.930+02:00,4191,1.185061,0,0,3466.396,19,7,2024-04-18T12:07:18.770+02:00,735130149.5892447,0,-54.78999,100.9387
2024-04-18T12:49:10.773+02:00,12947.82904004167,0.0088043212890625,-0.0746612548828125,-1.007888793945312,12947.78413904167,0.009547913515777284,0.007952726170628041,0.05722744201403864,-0.02529085986316204,0.05573653057217598,-0.006946805864572525,-0.0007985159754753113,-0.01664102822542191,-0.003286063671112061,XArbitraryZVertical,0.02859028804932477,0.00411125984854452,0.004885707907202188,0.9995708637957056,0.007939623668789864,-0.05719621106982231,-0.9983313679695129,0,0,0,-1,-1,12946.5868005,unknown,2,2024-04-18T12:49:09.530+02:00,2024-04-17T14:37:41.930+02:00,4191,1.185061,0,0,3466.396,19,7,2024-04-18T12:07:18.770+02:00,735130149.5892447,0,-54.78999,100.9387
2024-04-18T12:49:10.808+02:00,12947.863961,0.009002685546875,-0.0777740478515625,-0.9930419921875,12947.84400604167,0.01039299256894739,0.009902001302685783,0.0587562481048759,0.02054613642394543,0.03875279426574707,0.0147580336779356,-0.004132193513214588,-0.02517033368349075,-3.510713577270508e-05,XArbitraryZVertical,0.02934742601804001,0.00510141617917873,0.0053395947197167,0.9995419629085185,0.009884752333164215,-0.05872244760394096,-0.9982253909111023,0,0,0,-1,-1,12946.5868005,unknown,2,2024-04-18T12:49:09.530+02:00,2024-04-17T14:37:41.930+02:00,4191,1.185061,0,0,3466.396,19,7,2024-04-18T12:07:18.770+02:00,735130149.5892447,0,-54.78999,100.9387
2024-04-18T12:49:10.843+02:00,12947.898883,0.0066375732421875,-0.076019287109375,-1.00213623046875,12947.84400604167,0.01039299256894739,0.009902001302685783,0.0587562481048759,0.02054613642394543,0.03875279426574707,0.0147580336779356,-0.004132193513214588,-0.02517033368349075,-3.510713577270508e-05,XArbitraryZVertical,0.02934742601804001,0.00510141617917873,0.0053395947197167,0.9995419629085185,0.009884752333164215,-0.05872244760394096,-0.9982253909111023,0,0,0,-1,-1,12946.5868005,unknown,2,2024-04-18T12:49:09.530+02:00,2024-04-17T14:37:41.930+02:00,4191,1.185061,0,0,3466.396,19,7,2024-04-18T12:07:18.770+02:00,735130149.5892447,0,-54.78999,100.9387
2024-04-18T12:49:10.878+02:00,12947.933806,0.009918212890625,-0.0604248046875,-1.034271240234375,12947.903872,0.01025225811365764,0.01190020355605582,0.06055736221510745,-0.0257902480661869,0.009734250605106354,-0.009319491684436798,-0.005866151303052902,-0.01995445415377617,-0.009304225444793701,XArbitraryZVertical,0.03024263234933574,0.006102446082205248,0.005303796176975568,0.9995099540605348,0.01187810953706503,-0.06052035465836525,-0.9980962872505188,0,0,0,-1,-1,12946.5868005,unknown,2,2024-04-18T12:49:09.530+02:00,2024-04-17T14:37:41.930+02:00,4191,1.185061,0,0,3466.396,19,7,2024-04-18T12:07:18.770+02:00,735130149.5892447,0,-54.78999,100.9387
2024-04-18T12:49:10.913+02:00,12947.968728,0.00506591796875,-0.0966949462890625,-0.9857177734375,12947.963739,0.01117375586327857,0.0140734102058556,0.05991897133411561,0.005768254864960909,0.06946273148059845,0.008264637552201748,-0.008920742198824883,-0.02523035928606987,-0.004136502742767334,XArbitraryZVertical,0.0299144984091547,0.007200729106603029,0.005794982686825825,0.9995097762584398,0.01404769066721201,-0.05988312512636185,-0.9981065392494202,0,0,0,-1,-1,12946.5868005,unknown,2,2024-04-18T12:49:09.530+02:00,2024-04-17T14:37:41.930+02:00,4191,1.185061,0,0,3466.396,19,7,2024-04-18T12:07:18.770+02:00,735130149.5892447,0,-54.78999,100.9387
2024-04-18T12:49:10.962+02:00,12948.003651,0.0150299072265625,-0.070068359375,-1.007110595703125,12947.963739,0.01117375586327857,0.0140734102058556,0.05991897133411561,0.005768254864960909,0.06946273148059845,0.008264637552201748,-0.008920742198824883,-0.02523035928606987,-0.004136502742767334,XArbitraryZVertical,0.0299144984091547,0.007200729106603029,0.005794982686825825,0.9995097762584398,0.01404769066721201,-0.05988312512636185,-0.9981065392494202,0,0,0,-1,-1,12946.5868005,unknown,2,2024-04-18T12:49:09.530+02:00,2024-04-17T14:37:41.930+02:00,4191,1.185061,0,0,3466.396,19,7,2024-04-18T12:07:18.770+02:00,735130149.5892447,0,-54.78999,100.9387
2024-04-18T12:49:10.983+02:00,12948.038573,0.0243682861328125,-0.060882568359375,-1.020584106445312,12948.023606,0.0106691270689317,0.01364725057188915,0.06046076077172485,0.01045035943388939,0.004573138430714607,0.003734448458999395,0.003086477518081665,-0.01059043034911156,-0.01904052495956421,XArbitraryZVertical,0.03018825864173949,0.006981594436468826,0.005538221611874367,0.9995044966136126,0.01362189184874296,-0.06042393296957016,-0.9980798363685608,0,0,0,-1,-1,12946.5868005,unknown,2,2024-04-18T12:49:09.530+02:00,2024-04-17T14:37:41.930+02:00,4191,1.185061,0,0,3466.396,19,7,2024-04-18T12:07:18.770+02:00,735130149.5892447,0,-54.78999,100.9387
2024-04-18T12:49:11.018+02:00,12948.073495,0.006683349609375,-0.089813232421875,-1.000961303710938,12948.023606,0.0106691270689317,0.01364725057188915,0.06046076077172485,0.01045035943388939,0.004573138430714607,0.003734448458999395,0.003086477518081665,-0.01059043034911156,-0.01904052495956421,XArbitraryZVertical,0.03018825864173949,0.006981594436468826,0.005538221611874367,0.9995044966136126,0.01362189184874296,-0.06042393296957016,-0.9980798363685608,0,0,0,-1,-1,12946.5868005,unknown,2,2024-04-18T12:49:09.530+02:00,2024-04-17T14:37:41.930+02:00,4191,1.185061,0,0,3466.396,19,7,2024-04-18T12:07:18.770+02:00,735130149.5892447,0,-54.78999,100.9387
2024-04-18T12:49:11.053+02:00,12948.108418,0.009613037109375,-0.0690155029296875,-1.009750366210938,12948.083473,0.01177000042830836,0.01508128271061621,0.06163235549495268,0.03551505506038666,-0.00559633132070303,-0.009535398334264755,-0.008368732407689095,-0.02821984514594078,-0.002973496913909912,XArbitraryZVertical,0.03076553556372025,0.007718177409053536,0.006114335554115825,0.9994781469385726,0.01505207736045122,-0.06159334257245064,-0.9979878067970276,0,0,0,-1,-1,12946.5868005,unknown,2,2024-04-18T12:49:09.530+02:00,2024-04-17T14:37:41.930+02:00,4191,1.185061,0,0,3466.396,19,7,2024-04-18T12:07:18.770+02:00,735130149.5892447,0,-54.78999,100.9387
2024-04-18T12:49:11.088+02:00,12948.14334,0.0226287841796875,-0.067413330078125,-1.01019287109375,12948.083473,0.01177000042830836,0.01508128271061621,0.06163235549495268,0.03551505506038666,-0.00559633132070303,-0.009535398334264755,-0.008368732407689095,-0.02821984514594078,-0.002973496913909912,XArbitraryZVertical,0.03076553556372025,0.007718177409053536,0.006114335554115825,0.9994781469385726,0.01505207736045122,-0.06159334257245064,-0.9979878067970276,0,0,0,-1,-1,12946.5868005,unknown,2,2024-04-18T12:49:09.530+02:00,2024-04-17T14:37:41.930+02:00,4191,1.185061,0,0,3466.396,19,7,2024-04-18T12:07:18.770+02:00,735130149.5892447,0,-54.78999,100.9387
2024-04-18T12:49:11.122+02:00,12948.178262,0.0129547119140625,-0.088470458984375,-1.005081176757812,12948.14334,0.01140223320380032,0.01549614042332209,0.06294443374406498,-0.01799473166465759,0.02039583586156368,0.01613423973321915,0.004173223860561848,-0.009286411106586456,-0.01763361692428589,XArbitraryZVertical,0.0314214145946022,0.007923420492596809,0.005941893530532271,0.9994571889842472,0.01546483393758535,-0.06290287524461746,-0.9978998303413391,0,0,0,-1,-1,12946.5868005,unknown,2,2024-04-18T12:49:09.530+02:00,2024-04-17T14:37:41.930+02:00,4191,1.185061,0,0,3466.396,19,7,2024-04-18T12:07:18.770+02:00,735130149.5892447,0,-54.78999,100.9387
2024-04-18T12:49:11.157+02:00,12948.213185,0.0117645263671875,-0.0781402587890625,-1.000320434570312,12948.203207,0.01191763261448134,0.01520315810075861,0.06412327418992776,0.001101420726627111,0.001935962587594986,0.0007663932628929615,-0.003147407434880733,-0.02223958820104599,-0.00539010763168335,XArbitraryZVertical,0.03200937384263557,0.007788473599640624,0.006199216610997448,0.9994380872508832,0.01517132855951786,-0.06407933682203293,-0.9978294968605042,0,0,0,-1,-1,12946.5868005,unknown,2,2024-04-18T12:49:09.530+02:00,2024-04-17T14:37:41.930+02:00,4191,1.185061,0,0,3466.396,19,7,2024-04-18T12:07:18.770+02:00,735130149.5892447,0,-54.78999,100.9387
2024-04-18T12:49:11.192+02:00,12948.248107,0.0151214599609375,-0.0777435302734375,-1.004364013671875,12948.203207,0.01191763261448134,0.01520315810075861,0.06412327418992776,0.001101420726627111,0.001935962587594986,0.0007663932628929615,-0.003147407434880733,-0.02223958820104599,-0.00539010763168335,XArbitraryZVertical,0.03200937384263557,0.007788473599640624,0.006199216610997448,0.9994380872508832,0.01517132855951786,-0.06407933682203293,-0.9978294968605042,0,0,0,-1,-1,12946.5868005,unknown,2,2024-04-18T12:49:09.530+02:00,2024-04-17T14:37:41.930+02:00,4191,1.185061,0,0,3466.396,19,7,2024-04-18T12:07:18.770+02:00,735130149.5892447,0,-54.78999,100.9387
2024-04-18T12:49:11.227+02:00,12948.28303,0.0127410888671875,-0.0828857421875,-1.010574340820312,12948.263074,0.01261585044674424,0.01507938493432432,0.06459463264077428,-0.01956985890865326,-0.02571187168359756,0.01147876866161823,0.0004555573686957359,-0.0198771059513092,-0.01568770408630371,XArbitraryZVertical,0.03224260503724968,0.007739225069665139,0.006547876442363378,0.9994287237880657,0.01504736673086882,-0.06454972177743912,-0.9978010654449463,0,0,0,-1,-1,12946.5868005,unknown,2,2024-04-18T12:49:09.530+02:00,2024-04-17T14:37:41.930+02:00,4191,1.185061,0,0,3466.396,19,7,2024-04-18T12:07:18.770+02:00,735130149.5892447,0,-54.78999,100.9387
2024-04-18T12:49:11.262+02:00,12948.317952,0.0052490234375,-0.0915985107421875,-0.99664306640625,12948.263074,0.01261585044674424,0.01507938493432432,0.06459463264077428,-0.01956985890865326,-0.02571187168359756,0.01147876866161823,0.0004555573686957359,-0.0198771059513092,-0.01568770408630371,XArbitraryZVertical,0.03224260503724968,0.007739225069665139,0.006547876442363378,0.9994287237880657,0.01504736673086882,-0.06454972177743912,-0.9978010654449463,0,0,0,-1,-1,12946.5868005,unknown,2,2024-04-18T12:49:09.530+02:00,2024-04-17T14:37:41.930+02:00,4191,1.185061,0,0,3466.396,19,7,2024-04-18T12:07:18.770+02:00,735130149.5892447,0,-54.78999,100.9387
2024-04-18T12:49:11.298+02:00,12948.352874,0.0211334228515625,-0.07159423828125,-1.017059326171875,12948.322941,0.01263572079950766,0.01596240906824914,0.06376308585342265,-0.01147651113569736,0.01410360261797905,-0.02021280862390995,-0.009978370741009712,-0.03167802095413208,0.001426517963409424,XArbitraryZVertical,0.03182409276495997,0.008178285935765807,0.006568808828328701,0.9994384545656738,0.01592929475009441,-0.06371989101171494,-0.9978407025337219,0,0,0,-1,-1,12946.5868005,unknown,2,2024-04-18T12:49:09.530+02:00,2024-04-17T14:37:41.930+02:00,4191,1.185061,0,0,3466.396,19,7,2024-04-18T12:07:18.770+02:00,735130149.5892447,0,-54.78999,100.9387
2024-04-18T12:49:11.332+02:00,12948.387797,0.0174102783203125,-0.0780792236328125,-1.00286865234375,12948.382808,0.01230455997690131,0.01625725141389672,0.06384133935317214,-0.02353881113231182,0.01609844341874123,-0.02066767774522305,-0.004687780514359474,-0.02688495814800262,-0.004167914390563965,XArbitraryZVertical,0.0318636075300405,0.008320585409922254,0.006408323294701861,0.9994370473054255,0.01622341759502888,-0.06379798054695129,-0.9978309273719788,0,0,0,-1,-1,12946.5868005,unknown,2,2024-04-18T12:49:09.530+02:00,2024-04-17T14:37:41.930+02:00,4191,1.185061,0,0,3466.396,19,7,2024-04-18T12:07:18.770+02:00,735130149.5892447,0,-54.78999,100.9387
2024-04-18T12:49:11.367+02:00,12948.422719,0.015533447265625,-0.067535400390625,-1.023345947265625,12948.382808,0.01230455997690131,0.01625725141389672,0.06384133935317214,-0.02353881113231182,0.01609844341874123,-0.02066767774522305,-0.004687780514359474,-0.02688495814800262,-0.004167914390563965,XArbitraryZVertical,0.0318636075300405,0.008320585409922254,0.006408323294701861,0.9994370473054255,0.01622341759502888,-0.06379798054695129,-0.9978309273719788,0,0,0,-1,-1,12946.5868005,unknown,2,2024-04-18T12:49:09.530+02:00,2024-04-17T14:37:41.930+02:00,4191,1.185061,0,0,3466.396,19,7,2024-04-18T12:07:18.770+02:00,735130149.5892447,0,-54.78999,100.9387
2024-04-18T12:49:11.402+02:00,12948.457642,0.015869140625,-0.091827392578125,-1.006668090820312,12948.442675,0.01241582060259742,0.01726443928420267,0.06359403194553137,0.01123998686671257,0.007532024756073952,0.01218861527740955,-0.001741018146276474,-0.01028606295585632,-0.0130496621131897,XArbitraryZVertical,0.03173630049788619,0.008824933747722577,0.006478925012596948,0.9994363385503744,0.01722868531942368,-0.0635511726140976,-0.9978298544883728,0,0,0,-1,-1,12946.5868005,unknown,2,2024-04-18T12:49:09.530+02:00,2024-04-17T14:37:41.930+02:00,4191,1.185061,0,0,3466.396,19,7,2024-04-18T12:07:18.770+02:00,735130149.5892447,0,-54.78999,100.9387
2024-04-18T12:49:11.445+02:00,12948.492564,0.0123748779296875,-0.0845794677734375,-1.011886596679688,12948.442675,0.01241582060259742,0.01726443928420267,0.06359403194553137,0.01123998686671257,0.007532024756073952,0.01218861527740955,-0.001741018146276474,-0.01028606295585632,-0.0130496621131897,XArbitraryZVertical,0.03173630049788619,0.008824933747722577,0.006478925012596948,0.9994363385503744,0.01722868531942368,-0.0635511726140976,-0.9978298544883728,0,0,0,-1,-1,12946.5868005,unknown,2,2024-04-18T12:49:09.530+02:00,2024-04-17T14:37:41.930+02:00,4191,1.185061,0,0,3466.396,19,7,2024-04-18T12:07:18.770+02:00,735130149.5892447,0,-54.78999,100.9387
2024-04-18T12:49:11.472+02:00,12948.527486,0.0196533203125,-0.0699005126953125,-1.007858276367188,12948.502542,0.01218799024888005,0.0170199362627561,0.06453489445026937,0.02214856073260307,-0.003990331664681435,-0.01802106760442257,-0.004608813673257828,-0.02008931338787079,-0.01411277055740356,XArbitraryZVertical,0.03220824953566066,0.008701873009522652,0.006365103634295048,0.9994230165707058,0.01698368601500988,-0.06449010968208313,-0.9977738261222839,0,0,0,-1,-1,12946.5868005,unknown,2,2024-04-18T12:49:09.530+02:00,2024-04-17T14:37:41.930+02:00,4191,1.185061,0,0,3466.396,19,7,2024-04-18T12:07:18.770+02:00,735130149.5892447,0,-54.78999,100.9387
2024-04-18T12:49:11.507+02:00,12948.562409,0.014404296875,-0.0843048095703125,-0.9940338134765625,12948.502542,0.01218799024888005,0.0170199362627561,0.06453489445026937,0.02214856073260307,-0.003990331664681435,-0.01802106760442257,-0.004608813673257828,-0.02008931338787079,-0.01411277055740356,XArbitraryZVertical,0.03220824953566066,0.008701873009522652,0.006365103634295048,0.9994230165707058,0.01698368601500988,-0.06449010968208313,-0.9977738261222839,0,0,0,-1,-1,12946.5868005,unknown,2,2024-04-18T12:49:09.530+02:00,2024-04-17T14:37:41.930+02:00,4191,1.185061,0,0,3466.396,19,7,2024-04-18T12:07:18.770+02:00,735130149.5892447,0,-54.78999,100.9387
2024-04-18T12:49:11.542+02:00,12948.597331,0.0236663818359375,-0.0628814697265625,-1.01123046875,12948.562409,0.01219525625204373,0.01725396127759492,0.06397431736778328,0.02071067504584789,-0.01769166812300682,-0.01215286739170551,0.0003145318478345871,-0.02864433825016022,-0.00106501579284668,XArbitraryZVertical,0.03192734017286022,0.008817303455544625,0.006370140661570885,0.9994310978462897,0.01721781119704247,-0.0639306902885437,-0.9978057742118835,0,0,0,-1,-1,12946.5868005,unknown,2,2024-04-18T12:49:09.530+02:00,2024-04-17T14:37:41.930+02:00,4191,1.185061,0,0,3466.396,19,7,2024-04-18T12:07:18.770+02:00,735130149.5892447,0,-54.78999,100.9387
2024-04-18T12:49:11.577+02:00,12948.632253,0.0077056884765625,-0.0933685302734375,-1.00677490234375,12948.622276,0.01312317045204356,0.01592852408314492,0.06499632557525827,0.007252213545143604,-0.01198363956063986,0.009502512402832508,0.0008904468268156052,-0.0240081250667572,-0.02427178621292114,XArbitraryZVertical,0.03243848294552688,0.00817299485238092,0.006816635523915276,0.9994170754513981,0.01589421927928925,-0.06495057046413422,-0.9977619051933289,0,0,0,-1,-1,12946.5868005,unknown,2,2024-04-18T12:49:09.530+02:00,2024-04-17T14:37:41.930+02:00,4191,1.185061,0,0,3466.396,19,7,2024-04-18T12:07:18.770+02:00,735130149.5892447,0,-54.78999,100.9387
2024-04-18T12:49:11.612+02:00,12948.667176,0.01824951171875,-0.0639801025390625,-0.9955291748046875,12948.622276,0.01312317045204356,0.01592852408314492,0.06499632557525827,0.007252213545143604,-0.01198363956063986,0.009502512402832508,0.0008904468268156052,-0.0240081250667572,-0.02427178621292114,XArbitraryZVertical,0.03243848294552688,0.00817299485238092,0.006816635523915276,0.9994170754513981,0.01589421927928925,-0.06495057046413422,-0.9977619051933289,0,0,0,-1,-1,12946.5868005,unknown,2,2024-04-18T12:49:09.530+02:00,2024-04-17T14:37:41.930+02:00,4191,1.185061,0,0,3466.396,19,7,2024-04-18T12:07:18.770+02:00,735130149.5892447,0,-54.78999,100.9387
2024-04-18T12:49:11.647+02:00,12948.702098,0.0107879638671875,-0.081390380859375,-1.010986328125,12948.682143,0.01366305817123758,0.01543484794150351,0.06500349366488203,-0.002489984966814518,-0.04798303171992302,0.003416695166379213,0.003717619925737381,-0.005492061376571655,0.001553356647491455,XArbitraryZVertical,0.03244160333354689,0.00793508012048458,0.007078441344342785,0.9994171443439974,0.01540163811296225,-0.06495772302150726,-0.9977691769599915,0,0,0,-1,-1,12946.5868005,unknown,2,2024-04-18T12:49:09.530+02:00,2024-04-17T14:37:41.930+02:00,4191,1.185061,0,0,3466.396,19,7,2024-04-18T12:07:18.770+02:00,735130149.5892447,0,-54.78999,100.9387
2024-04-18T12:49:11.682+02:00,12948.737021,0.0157623291015625,-0.076019287109375,-1.012496948242188,12948.682143,0.01366305817123758,0.01543484794150351,0.06500349366488203,-0.002489984966814518,-0.04798303171992302,0.003416695166379213,0.003717619925737381,-0.005492061376571655,0.001553356647491455,XArbitraryZVertical,0.03244160333354689,0.00793508012048458,0.007078441344342785,0.9994171443439974,0.01540163811296225,-0.06495772302150726,-0.9977691769599915,0,0,0,-1,-1,12946.5868005,unknown,2,2024-04-18T12:49:09.530+02:00,2024-04-17T14:37:41.930+02:00,4191,1.185061,0,0,3466.396,19,7,2024-04-18T12:07:18.770+02:00,735130149.5892447,0,-54.78999,100.9387
2024-04-18T12:49:11.717+02:00,12948.771943,0.010986328125,-0.0759124755859375,-1.00592041015625,12948.742009,0.01339964566329907,0.01400888669984753,0.06457037839178904,0.002078711986541748,-0.002979472279548645,0.01530691049993038,0.0004097968339920044,-0.00917438417673111,-0.01507550477981567,XArbitraryZVertical,0.03223115848505792,0.007216838722594605,0.006922209998915727,0.999430498053454,0.01397923566401005,-0.06452551484107971,-0.9978181123733521,0,0,0,-1,-1,12946.5868005,unknown,2,2024-04-18T12:49:09.530+02:00,2024-04-17T14:37:41.930+02:00,4191,1.185061,0,0,3466.396,19,7,2024-04-18T12:07:18.770+02:00,735130149.5892447,0,-54.78999,100.9387
2024-04-18T12:49:11.751+02:00,12948.806865,0.005706787109375,-0.084747314453125,-1.000885009765625,12948.801876,0.01401898389211365,0.01245058331232072,0.06562991429190772,0.001123169902712107,0.02471394091844559,-0.002325612585991621,-0.00973791629076004,-0.02020205557346344,-0.0009789466857910156,XArbitraryZVertical,0.03276401358340602,0.006451715537285635,0.007209764666563537,0.9994163124248121,0.01242345757782459,-0.06558281183242798,-0.9977697730064392,0,0,0,-1,-1,12946.5868005,unknown,2,2024-04-18T12:49:09.530+02:00,2024-04-17T14:37:41.930+02:00,4191,1.185061,0,0,3466.396,19,7,2024-04-18T12:07:18.770+02:00,735130149.5892447,0,-54.78999,100.9387
2024-04-18T12:49:11.786+02:00,12948.841788,0.0070953369140625,-0.095947265625,-0.99359130859375,12948.801876,0.01401898389211365,0.01245058331232072,0.06562991429190772,0.001123169902712107,0.02471394091844559,-0.002325612585991621,-0.00973791629076004,-0.02020205557346344,-0.0009789466857910156,XArbitraryZVertical,0.03276401358340602,0.006451715537285635,0.007209764666563537,0.9994163124248121,0.01242345757782459,-0.06558281183242798,-0.9977697730064392,0,0,0,-1,-1,12946.5868005,unknown,2,2024-04-18T12:49:09.530+02:00,2024-04-17T14:37:41.930+02:00,4191,1.185061,0,0,3466.396,19,7,2024-04-18T12:07:18.770+02:00,735130149.5892447,0,-54.78999,100.9387
2024-04-18T12:49:11.821+02:00,12948.87670975,0.00994873046875,-0.0684967041015625,-1.019088745117188,12948.86174275,0.01307431387394938,0.01266758833174315,0.06502993498792067,-0.01181380078196526,-0.03496165946125984,-0.03651877492666245,-0.005438331514596939,-0.01939695328474045,-0.002041161060333252,XArbitraryZVertical,0.03246650608889082,0.006542780285171981,0.006739424377538639,0.9994287844619643,0.01264047436416149,-0.06498411297798157,-0.9978062510490417,0,0,0,-1,-1,12946.5868005,unknown,2,2024-04-18T12:49:09.530+02:00,2024-04-17T14:37:41.930+02:00,4191,1.185061,0,0,3466.396,19,7,2024-04-18T12:07:18.770+02:00,735130149.5892447,0,-54.78999,100.9387
2024-04-18T12:49:11.857+02:00,12948.91163175,0.0157928466796875,-0.0788421630859375,-1.016555786132812,12948.86174275,0.01307431387394938,0.01266758833174315,0.06502993498792067,-0.01181380078196526,-0.03496165946125984,-0.03651877492666245,-0.005438331514596939,-0.01939695328474045,-0.002041161060333252,XArbitraryZVertical,0.03246650608889082,0.006542780285171981,0.006739424377538639,0.9994287844619643,0.01264047436416149,-0.06498411297798157,-0.9978062510490417,0,0,0,-1,-1,12946.5868005,unknown,2,2024-04-18T12:49:09.530+02:00,2024-04-17T14:37:41.930+02:00,4191,1.185061,0,0,3466.396,19,7,2024-04-18T12:07:18.770+02:00,735130149.5892447,0,-54.78999,100.9387
2024-04-18T12:49:11.891+02:00,12948.94655475,0.0151824951171875,-0.0750579833984375,-0.996490478515625,12948.92160975,0.01232107065919531,0.01308738834644515,0.06504764310899983,-0.02268943935632706,0.02878034301102161,-0.003128784010186791,0.002733504399657249,-0.01384034007787704,-0.01875609159469604,XArbitraryZVertical,0.03247648328420875,0.006740385886869001,0.006369889286026588,0.9994294897576605,0.01305933762341738,-0.06500177830457687,-0.9977996945381165,0,0,0,-1,-1,12946.5868005,unknown,2,2024-04-18T12:49:09.530+02:00,2024-04-17T14:37:41.930+02:00,4191,1.185061,0,0,3466.396,19,7,2024-04-18T12:07:18.770+02:00,735130149.5892447,0,-54.78999,100.9387
2024-04-18T12:49:11.926+02:00,12948.98147675,0.0062103271484375,-0.0842437744140625,-0.9968719482421875,12948.92160975,0.01232107065919531,0.01308738834644515,0.06504764310899983,-0.02268943935632706,0.02878034301102161,-0.003128784010186791,0.002733504399657249,-0.01384034007787704,-0.01875609159469604,XArbitraryZVertical,0.03247648328420875,0.006740385886869001,0.006369889286026588,0.9994294897576605,0.01305933762341738,-0.06500177830457687,-0.9977996945381165,0,0,0,-1,-1,12946.5868005,unknown,2,2024-04-18T12:49:09.530+02:00,2024-04-17T14:37:41.930+02:00,4191,1.185061,0,0,3466.396,19,7,2024-04-18T12:07:18.770+02:00,735130149.5892447,0,-54.78999,100.9387
2024-04-18T12:49:11.961+02:00,12949.01639975,0.006744384765625,-0.080841064453125,-1.031082153320312,12948.98147675,0.01206013061117501,0.01335429548242375,0.06437128558627657,-0.03452941030263901,-0.0386454164981842,-0.02028030157089233,-0.008565504103899002,-0.02354848384857178,0.01520442962646484,XArbitraryZVertical,0.03213854021677848,0.006867560866081577,0.006241636798475678,0.9994403797103122,0.01332624070346355,-0.06432683765888214,-0.9978399276733398,0,0,0,-1,-1,12946.5868005,unknown,2,2024-04-18T12:49:09.530+02:00,2024-04-17T14:37:41.930+02:00,4191,1.185061,0,0,3466.396,19,7,2024-04-18T12:07:18.770+02:00,735130149.5892447,0,-54.78999,100.9387
2024-04-18T12:49:11.996+02:00,12949.05132175,0.0231170654296875,-0.0644683837890625,-1.002487182617188,12949.04134375,0.01152386077944386,0.01368843845923044,0.06392239763376396,0.02621982246637344,0.06641022115945816,-0.006275156978517771,-0.006702052429318428,-0.01563463360071182,-0.01238971948623657,XArbitraryZVertical,0.03191506194188037,0.007024677987513273,0.005977527500091714,0.9994480709681172,0.01366005558520555,-0.0638788715004921,-0.9978641867637634,0,0,0,-1,-1,12946.5868005,unknown,2,2024-04-18T12:49:09.530+02:00,2024-04-17T14:37:41.930+02:00,4191,1.185061,0,0,3466.396,19,7,2024-04-18T12:07:18.770+02:00,735130149.5892447,0,-54.78999,100.9387
2024-04-18T12:49:12.031+02:00,12949.08624375,0.0128326416015625,-0.09600830078125,-1.01104736328125,12949.04134375,0.01152386077944386,0.01368843845923044,0.06392239763376396,0.02621982246637344,0.06641022115945816,-0.006275156978517771,-0.006702052429318428,-0.01563463360071182,-0.01238971948623657,XArbitraryZVertical,0.03191506194188037,0.007024677987513273,0.005977527500091714,0.9994480709681172,0.01366005558520555,-0.0638788715004921,-0.9978641867637634,0,0,0,-1,-1,12946.5868005,unknown,2,2024-04-18T12:49:09.530+02:00,2024-04-17T14:37:41.930+02:00,4191,1.185061,0,0,3466.396,19,7,2024-04-18T12:07:18.770+02:00,735130149.5892447,0,-54.78999,100.9387
2024-04-18T12:49:12.066+02:00,12949.12116675,0.0133514404296875,-0.0762176513671875,-0.98675537109375,12949.10121075,0.01220769492929466,0.01478903686281784,0.06553787328641895,-0.01608693227171898,0.01893064193427563,-0.01264186203479767,-0.007707194425165653,-0.03648347407579422,-0.004498958587646484,XArbitraryZVertical,0.03271645587806381,0.007590317623980481,0.006342626265395807,0.9994157372975505,0.01475674938410521,-0.0654909685254097,-0.9977440237998962,0,0,0,-1,-1,12946.5868005,unknown,2,2024-04-18T12:49:09.530+02:00,2024-04-17T14:37:41.930+02:00,4191,1.185061,0,0,3466.396,19,7,2024-04-18T12:07:18.770+02:00,735130149.5892447,0,-54.78999,100.9387
2024-04-18T12:49:12.101+02:00,12949.15608875,0.014862060546875,-0.0916595458984375,-0.9987945556640625,12949.10121075,0.01220769492929466,0.01478903686281784,0.06553787328641895,-0.01608693227171898,0.01893064193427563,-0.01264186203479767,-0.007707194425165653,-0.03648347407579422,-0.004498958587646484,XArbitraryZVertical,0.03271645587806381,0.007590317623980481,0.006342626265395807,0.9994157372975505,0.01475674938410521,-0.0654909685254097,-0.9977440237998962,0,0,0,-1,-1,12946.5868005,unknown,2,2024-04-18T12:49:09.530+02:00,2024-04-17T14:37:41.930+02:00,4191,1.185061,0,0,3466.396,19,7,2024-04-18T12:07:18.770+02:00,735130149.5892447,0,-54.78999,100.9387
2024-04-18T12:49:12.136+02:00,12949.19101075,0.0164794921875,-0.0774688720703125,-1.008453369140625,12949.16107775,0.01184794872518473,0.01437158347218633,0.06392493930561635,-0.05010441690683365,-0.06759917736053467,-0.02487558498978615,-0.006071477197110653,-0.01798194646835327,-0.008172750473022461,XArbitraryZVertical,0.03191309252578751,0.007371239510156689,0.00615039099617819,0.9994446482410211,0.01434173621237278,-0.06388141214847565,-0.9978544116020203,0,0,0,-1,-1,12946.5868005,unknown,2,2024-04-18T12:49:09.530+02:00,2024-04-17T14:37:41.930+02:00,4191,1.185061,0,0,3466.396,19,7,2024-04-18T12:07:18.770+02:00,735130149.5892447,0,-54.78999,100.9387
2024-04-18T12:49:12.171+02:00,12949.22593375,0.0151824951171875,-0.0800628662109375,-1.013107299804688,12949.22094475,0.01191161659798053,0.01453164394398933,0.06180993694751691,-0.009808262810111046,-0.004848307929933071,-0.01463227067142725,-0.002586273476481438,-0.01743774488568306,-0.004502177238464355,XArbitraryZVertical,0.0308554320360074,0.007446188304127687,0.006177280071218287,0.9994770590298818,0.01450338307768106,-0.06177058815956116,-0.9979850053787231,0,0,0,-1,-1,12946.5868005,unknown,2,2024-04-18T12:49:09.530+02:00,2024-04-17T14:37:41.930+02:00,4191,1.185061,0,0,3466.396,19,7,2024-04-18T12:07:18.770+02:00,735130152.139055,0,-54.71001,100.9381
2024-04-18T12:49:12.206+02:00,12949.26085575,0.0183563232421875,-0.0616912841796875,-1.0145263671875,12949.22094475,0.01191161659798053,0.01453164394398933,0.06180993694751691,-0.009808262810111046,-0.004848307929933071,-0.01463227067142725,-0.002586273476481438,-0.01743774488568306,-0.004502177238464355,XArbitraryZVertical,0.0308554320360074,0.007446188304127687,0.006177280071218287,0.9994770590298818,0.01450338307768106,-0.06177058815956116,-0.9979850053787231,0,0,0,-1,-1,12946.5868005,unknown,2,2024-04-18T12:49:09.530+02:00,2024-04-17T14:37:41.930+02:00,4191,1.185061,0,0,3466.396,19,7,2024-04-18T12:07:18.770+02:00,735130152.139055,0,-54.71001,100.9381
2024-04-18T12:49:12.240+02:00,12949.29577875,-0.0068206787109375,-0.1210784912109375,-0.9934539794921875,12949.28081175,0.01244652366088853,0.01517487992493013,0.06070491354830497,-0.02571101859211922,0.03031190671026707,-0.0171346515417099,-0.006342030130326748,-0.02653630077838898,-0.00664132833480835,XArbitraryZVertical,0.03029913599951529,0.007772580325571965,0.006450430876249733,0.9994899462525074,0.01514634676277637,-0.06066763773560524,-0.9980431199073792,0,0,0,-1,-1,12946.5868005,unknown,2,2024-04-18T12:49:09.530+02:00,2024-04-17T14:37:41.930+02:00,4191,1.185061,0,0,3466.396,19,7,2024-04-18T12:07:18.770+02:00,735130152.139055,0,-54.71001,100.9381
2024-04-18T12:49:12.275+02:00,12949.33070075,0.0167388916015625,-0.0635223388671875,-1.018905639648438,12949.28081175,0.01244652366088853,0.01517487992493013,0.06070491354830497,-0.02571101859211922,0.03031190671026707,-0.0171346515417099,-0.006342030130326748,-0.02653630077838898,-0.00664132833480835,XArbitraryZVertical,0.03029913599951529,0.007772580325571965,0.006450430876249733,0.9994899462525074,0.01514634676277637,-0.06066763773560524,-0.9980431199073792,0,0,0,-1,-1,12946.5868005,unknown,2,2024-04-18T12:49:09.530+02:00,2024-04-17T14:37:41.930+02:00,4191,1.185061,0,0,3466.396,19,7,2024-04-18T12:07:18.770+02:00,735130152.139055,0,-54.71001,100.9381
2024-04-18T12:49:12.310+02:00,12949.36562275,0.0360565185546875,-0.0493011474609375,-1.028839111328125,12949.34067875,0.008571197447006447,0.019365330371367,0.05865836141925579,-0.01210182160139084,0.07888111472129822,-0.01876036077737808,-0.002591930329799652,-0.004897564649581909,-0.02081269025802612,XArbitraryZVertical,0.02928185345119798,0.009803929221541977,0.004567478354291747,0.9995127218746103,0.0193308163434267,-0.05862472951412201,-0.9980928897857666,0,0,0,-1,-1,12946.5868005,unknown,2,2024-04-18T12:49:09.530+02:00,2024-04-17T14:37:41.930+02:00,4191,1.185061,0,0,3466.396,19,7,2024-04-18T12:07:18.770+02:00,735130152.139055,0,-54.71001,100.9381
2024-04-18T12:49:12.345+02:00,12949.40054575,0.0207061767578125,-0.0645751953125,-0.9943695068359375,12949.34067875,0.008571197447006447,0.019365330371367,0.05865836141925579,-0.01210182160139084,0.07888111472129822,-0.01876036077737808,-0.002591930329799652,-0.004897564649581909,-0.02081269025802612,XArbitraryZVertical,0.02928185345119798,0.009803929221541977,0.004567478354291747,0.9995127218746103,0.0193308163434267,-0.05862472951412201,-0.9980928897857666,0,0,0,-1,-1,12946.5868005,unknown,2,2024-04-18T12:49:09.530+02:00,2024-04-17T14:37:41.930+02:00,4191,1.185061,0,0,3466.396,19,7,2024-04-18T12:07:18.770+02:00,735130152.139055,0,-54.71001,100.9381
2024-04-18T12:49:12.380+02:00,12949.43546775,0.0164794921875,-0.0836181640625,-1.017364501953125,12949.40054575,0.008998516391130031,0.01905161732734748,0.05952342726091143,-0.03525951504707336,0.06142257153987885,0.01482624746859074,0.005778800696134567,-0.004156079143285751,-0.001692712306976318,XArbitraryZVertical,0.02971282650432422,0.009655228108751489,0.004780501316230566,0.9995005162569595,0.01901672594249249,-0.05948828533291817,-0.9980478286743164,0,0,0,-1,-1,12946.5868005,unknown,2,2024-04-18T12:49:09.530+02:00,2024-04-17T14:37:41.930+02:00,4191,1.185061,0,0,3466.396,19,7,2024-04-18T12:07:18.770+02:00,735130152.139055,0,-54.71001,100.9381
2024-04-18T12:49:12.415+02:00,12949.47038975,0.0088958740234375,-0.0750732421875,-1.012161254882812,12949.46041275,0.008903452898706827,0.01906713795468914,0.06054010453225058,0.06415361911058426,-0.01460032723844051,-0.03354908525943756,-0.01108122803270817,-0.03925879299640656,-0.0221855640411377,XArbitraryZVertical,0.03022133383251671,0.009663689649586761,0.004738000500114732,0.9994852898422401,0.01903105340898037,-0.06050312891602516,-0.9979865550994873,0,0,0,-1,-1,12946.5868005,unknown,2,2024-04-18T12:49:09.530+02:00,2024-04-17T14:37:41.930+02:00,4191,1.185061,0,0,3466.396,19,7,2024-04-18T12:07:18.770+02:00,735130152.139055,0,-54.71001,100.9381
2024-04-18T12:49:12.462+02:00,12949.50531275,0.0246124267578125,-0.059783935546875,-1.011672973632812,12949.46041275,0.008903452898706827,0.01906713795468914,0.06054010453225058,0.06415361911058426,-0.01460032723844051,-0.03354908525943756,-0.01108122803270817,-0.03925879299640656,-0.0221855640411377,XArbitraryZVertical,0.03022133383251671,0.009663689649586761,0.004738000500114732,0.9994852898422401,0.01903105340898037,-0.06050312891602516,-0.9979865550994873,0,0,0,-1,-1,12946.5868005,unknown,2,2024-04-18T12:49:09.530+02:00,2024-04-17T14:37:41.930+02:00,4191,1.185061,0,0,3466.396,19,7,2024-04-18T12:07:18.770+02:00,735130152.139055,0,-54.71001,100.9381
2024-04-18T12:49:12.485+02:00,12949.54023475,0.03125,-0.073455810546875,-0.975250244140625,12949.52027875,0.008946778270353921,0.02109553399454967,0.06272957413192264,0.03995010629296303,0.03579189255833626,0.03088453970849514,0.002995368093252182,0.003026619553565979,-0.01340413093566895,XArbitraryZVertical,0.0313104241559418,0.01068255304701169,0.004801689697388526,0.999441163169696,0.02105247974395752,-0.0626884400844574,-0.9978110790252686,0,0,0,-1,-1,12946.5868005,unknown,2,2024-04-18T12:49:09.530+02:00,2024-04-17T14:37:41.930+02:00,4191,1.185061,0,0,3466.396,19,7,2024-04-18T12:07:18.770+02:00,735130152.139055,0,-54.71001,100.9381
2024-04-18T12:49:12.520+02:00,12949.57515675,0.027801513671875,-0.0790557861328125,-1.007614135742188,12949.52027875,0.008946778270353921,0.02109553399454967,0.06272957413192264,0.03995010629296303,0.03579189255833626,0.03088453970849514,0.002995368093252182,0.003026619553565979,-0.01340413093566895,XArbitraryZVertical,0.0313104241559418,0.01068255304701169,0.004801689697388526,0.999441163169696,0.02105247974395752,-0.0626884400844574,-0.9978110790252686,0,0,0,-1,-1,12946.5868005,unknown,2,2024-04-18T12:49:09.530+02:00,2024-04-17T14:37:41.930+02:00,4191,1.185061,0,0,3466.396,19,7,2024-04-18T12:07:18.770+02:00,735130152.139055,0,-54.71001,100.9381
2024-04-18T12:49:12.555+02:00,12949.61007975,0.0121002197265625,-0.085479736328125,-1.007492065429688,12949.58014575,0.01038866565503049,0.02044689079821956,0.06521983910421761,0.07845479249954224,-0.02359751239418983,0.01066532451659441,0.003828953951597214,-0.01319548487663269,-0.004913330078125,XArbitraryZVertical,0.03254892159774431,0.01038704121450015,0.005524592846174543,0.9994009106949171,0.02040199749171734,-0.06517361104488373,-0.9976653456687927,0,0,0,-1,-1,12946.5868005,unknown,2,2024-04-18T12:49:09.530+02:00,2024-04-17T14:37:41.930+02:00,4191,1.185061,0,0,3466.396,19,7,2024-04-18T12:07:18.770+02:00,735130152.139055,0,-54.71001,100.9381
2024-04-18T12:49:12.590+02:00,12949.64500175,-0.0003662109375,-0.11334228515625,-1.025665283203125,12949.64001275,0.01160969618732143,0.02147090831486842,0.0627531080872217,-0.09307146072387695,0.1079559251666069,0.03070922754704952,-0.01628479547798634,-0.01495525985956192,-0.01371872425079346,XArbitraryZVertical,0.03130678395762566,0.01091187786427405,0.006138398090885572,0.9994314158807475,0.02142699994146824,-0.0627119317650795,-0.997801661491394,0,0,0,-1,-1,12946.5868005,unknown,2,2024-04-18T12:49:09.530+02:00,2024-04-17T14:37:41.930+02:00,4191,1.185061,0,0,3466.396,19,7,2024-04-18T12:07:18.770+02:00,735130152.139055,0,-54.71001,100.9381
2024-04-18T12:49:12.625+02:00,12949.67992475,0.015899658203125,-0.1055908203125,-0.9771728515625,12949.64001275,0.01160969618732143,0.02147090831486842,0.0627531080872217,-0.09307146072387695,0.1079559251666069,0.03070922754704952,-0.01628479547798634,-0.01495525985956192,-0.01371872425079346,XArbitraryZVertical,0.03130678395762566,0.01091187786427405,0.006138398090885572,0.9994314158807475,0.02142699994146824,-0.0627119317650795,-0.997801661491394,0,0,0,-1,-1,12946.5868005,unknown,2,2024-04-18T12:49:09.530+02:00,2024-04-17T14:37:41.930+02:00,4191,1.185061,0,0,3466.396,19,7,2024-04-18T12:07:18.770+02:00,735130152.139055,0,-54.71001,100.9381
2024-04-18T12:49:12.659+02:00,12949.71484675,0.0593719482421875,-0.0286407470703125,-0.9467315673828125,12949.69987975,0.0095971456452281,0.02974027950278032,0.05548693552312096,-0.1657904088497162,0.2020144313573837,-0.0745965763926506,0.004123341292142868,-0.03534654155373573,0.01405644416809082,XArbitraryZVertical,0.02766519749387438,0.01499679512044255,0.005208653839973208,0.9994911746565929,0.02969013154506683,-0.05545846745371819,-0.9980194568634033,0,0,0,-1,-1,12946.5868005,unknown,2,2024-04-18T12:49:09.530+02:00,2024-04-17T14:37:41.930+02:00,4191,1.185061,0,0,3466.396,19,7,2024-04-18T12:07:18.770+02:00,735130152.139055,0,-54.71001,100.9381
2024-04-18T12:49:12.694+02:00,12949.74976875,0.0181427001953125,-0.1269989013671875,-1.04296875,12949.69987975,0.0095971456452281,0.02974027950278032,0.05548693552312096,-0.1657904088497162,0.2020144313573837,-0.0745965763926506,0.004123341292142868,-0.03534654155373573,0.01405644416809082,XArbitraryZVertical,0.02766519749387438,0.01499679512044255,0.005208653839973208,0.9994911746565929,0.02969013154506683,-0.05545846745371819,-0.9980194568634033,0,0,0,-1,-1,12946.5868005,unknown,2,2024-04-18T12:49:09.530+02:00,2024-04-17T14:37:41.930+02:00,4191,1.185061,0,0,3466.396,19,7,2024-04-18T12:07:18.770+02:00,735130152.139055,0,-54.71001,100.9381
2024-04-18T12:49:12.729+02:00,12949.78469175,-0.00970458984375,-0.174163818359375,-1.022781372070312,12949.75974675,0.006408503223252164,0.02856172689137137,0.0529943396644405,0.07501683384180069,-0.1671998500823975,-0.135871410369873,-0.01037505641579628,-0.07402932643890381,-0.04477989673614502,XArbitraryZVertical,0.02644548834572365,0.01436017589407702,0.00358113784054662,0.9995407540476532,0.02851775288581848,-0.05296953767538071,-0.998188853263855,0,0,0,-1,-1,12946.5868005,unknown,2,2024-04-18T12:49:09.530+02:00,2024-04-17T14:37:41.930+02:00,4191,1.185061,0,0,3466.396,19,7,2024-04-18T12:07:18.770+02:00,735130152.139055,0,-54.71001,100.9381
2024-04-18T12:49:12.764+02:00,12949.81961375,0.0094451904296875,-0.102996826171875,-1.1005859375,12949.75974675,0.006408503223252164,0.02856172689137137,0.0529943396644405,0.07501683384180069,-0.1671998500823975,-0.135871410369873,-0.01037505641579628,-0.07402932643890381,-0.04477989673614502,XArbitraryZVertical,0.02644548834572365,0.01436017589407702,0.00358113784054662,0.9995407540476532,0.02851775288581848,-0.05296953767538071,-0.998188853263855,0,0,0,-1,-1,12946.5868005,unknown,2,2024-04-18T12:49:09.530+02:00,2024-04-17T14:37:41.930+02:00,4191,1.185061,0,0,3466.396,19,7,2024-04-18T12:07:18.770+02:00,735130152.139055,0,-54.71001,100.9381
2024-04-18T12:49:12.799+02:00,12949.85453575,-0.0034637451171875,-0.125579833984375,-1.18310546875,12949.81961375,-0.009006118896407369,0.02579357276559187,0.05625362246246336,-0.03392842411994934,-0.1132913082838058,-0.3028031289577484,-0.02442240715026855,-0.08542333543300629,-0.06502425670623779,XArbitraryZVertical,0.02817852836183911,0.01276456783949531,-0.004138204786157399,0.9995128632586135,0.02574991621077061,-0.05622395873069763,-0.9980860948562622,0,0,0,-1,-1,12946.5868005,unknown,2,2024-04-18T12:49:09.530+02:00,2024-04-17T14:37:41.930+02:00,4191,1.185061,0,0,3466.396,19,7,2024-04-18T12:07:18.770+02:00,735130152.139055,0,-54.71001,100.9381
2024-04-18T12:49:12.834+02:00,12949.889460875,0.0291900634765625,-0.1395263671875,-1.217788696289062,12949.879482875,-0.02301199049374419,0.02772215534824473,0.05597326938486258,-0.1172198951244354,0.2218352258205414,-0.145267128944397,-0.004512358456850052,-0.04616772755980492,-0.2210659384727478,XArbitraryZVertical,0.02813785521965118,0.01353235469371446,-0.01111229455924839,0.9994506885313351,0.0276751946657896,-0.0559440478682518,-0.9980502724647522,0,0,0,-1,-1,12946.5868005,unknown,2,2024-04-18T12:49:09.530+02:00,2024-04-17T14:37:41.930+02:00,4191,1.185061,0,0,3466.396,19,7,2024-04-18T12:07:18.770+02:00,735130152.139055,0,-54.71001,100.9381
2024-04-18T12:49:12.869+02:00,12949.924382875,0.033721923828125,-0.2269744873046875,-1.040679931640625,12949.879482875,-0.02301199049374419,0.02772215534824473,0.05597326938486258,-0.1172198951244354,0.2218352258205414,-0.145267128944397,-0.004512358456850052,-0.04616772755980492,-0.2210659384727478,XArbitraryZVertical,0.02813785521965118,0.01353235469371446,-0.01111229455924839,0.9994506885313351,0.0276751946657896,-0.0559440478682518,-0.9980502724647522,0,0,0,-1,-1,12946.5868005,unknown,2,2024-04-18T12:49:09.530+02:00,2024-04-17T14:37:41.930+02:00,4191,1.185061,0,0,3466.396,19,7,2024-04-18T12:07:18.770+02:00,735130152.139055,0,-54.71001,100.9381
2024-04-18T12:49:12.904+02:00,12949.959305875,0.0295867919921875,-0.3738555908203125,-0.9432525634765625,12949.939349875,-0.03013993576067308,0.04993114455272808,0.06550929352268356,0.3394772708415985,0.3495346009731293,-0.07226402312517166,-0.002882573753595352,-0.1676307767629623,-0.01204031705856323,XArbitraryZVertical,0.03311084253357358,0.02445340527289217,-0.01423920641801935,0.9990510285458548,0.04980334267020226,-0.06546244770288467,-0.9966114163398743,0,0,0,-1,-1,12946.5868005,unknown,2,2024-04-18T12:49:09.530+02:00,2024-04-17T14:37:41.930+02:00,4191,1.185061,0,0,3466.396,19,7,2024-04-18T12:07:18.770+02:00,735130152.139055,0,-54.71001,100.9381
2024-04-18T12:49:12.946+02:00,12949.994227875,0.067718505859375,-0.285552978515625,-0.92669677734375,12949.939349875,-0.03013993576067308,0.04993114455272808,0.06550929352268356,0.3394772708415985,0.3495346009731293,-0.07226402312517166,-0.002882573753595352,-0.1676307767629623,-0.01204031705856323,XArbitraryZVertical,0.03311084253357358,0.02445340527289217,-0.01423920641801935,0.9990510285458548,0.04980334267020226,-0.06546244770288467,-0.9966114163398743,0,0,0,-1,-1,12946.5868005,unknown,2,2024-04-18T12:49:09.530+02:00,2024-04-17T14:37:41.930+02:00,4191,1.185061,0,0,3466.396,19,7,2024-04-18T12:07:18.770+02:00,735130152.139055,0,-54.71001,100.9381
2024-04-18T12:49:12.974+02:00,12950.029149875,0.07159423828125,-0.1539459228515625,-1.071044921875,12949.999216875,-0.0416103386292902,0.05984399136643344,0.07210214737339297,0.08912595361471176,-0.07683727890253067,-0.2516490817070007,0.007867254316806793,-0.2225769758224487,0.07389390468597412,XArbitraryZVertical,0.03664132023089349,0.02914212160415436,-0.01970275065516475,0.9987092429867617,0.05965288355946541,-0.07203969359397888,-0.9956163167953491,0,0,0,-1,-1,12946.5868005,unknown,2,2024-04-18T12:49:09.530+02:00,2024-04-17T14:37:41.930+02:00,4191,1.185061,0,0,3466.396,19,7,2024-04-18T12:07:18.770+02:00,735130152.139055,0,-54.71001,100.9381
2024-04-18T12:49:13.009+02:00,12950.064072875,0.11199951171875,-0.1606903076171875,-0.9653472900390625,12950.059083875,-0.05910239787853738,0.05040087042286374,0.06759447876790438,-0.08569406718015671,-0.1255232095718384,-0.1326854526996613,0.07699380815029144,-0.009239166975021362,-0.07256609201431274,XArbitraryZVertical,0.03450941816707427,0.02417428625711957,-0.02866956694429594,0.9987005500939794,0.05026448518037796,-0.06754301488399506,-0.9964494109153748,0,0,0,-1,-1,12946.5868005,unknown,2,2024-04-18T12:49:09.530+02:00,2024-04-17T14:37:41.930+02:00,4191,1.185061,0,0,3466.396,19,7,2024-04-18T12:07:18.770+02:00,735130152.139055,0,-54.71001,100.9381
2024-04-18T12:49:13.044+02:00,12950.098994875,0.0086822509765625,-0.2850494384765625,-0.743865966796875,12950.059083875,-0.05910239787853738,0.05040087042286374,0.06759447876790438,-0.08569406718015671,-0.1255232095718384,-0.1326854526996613,0.07699380815029144,-0.009239166975021362,-0.07256609201431274,XArbitraryZVertical,0.03450941816707427,0.02417428625711957,-0.02866956694429594,0.9987005500939794,0.05026448518037796,-0.06754301488399506,-0.9964494109153748,0,0,0,-1,-1,12946.5868005,unknown,2,2024-04-18T12:49:09.530+02:00,2024-04-17T14:37:41.930+02:00,4191,1.185061,0,0,3466.396,19,7,2024-04-18T12:07:18.770+02:00,735130152.139055,0,-54.71001,100.9381
2024-04-18T12:49:13.079+02:00,12950.133916875,-0.0290679931640625,-0.2214813232421875,-0.7949371337890625,12950.118950875,-0.07215195688186707,0.03139217035079221,0.06885060446684999,-0.2127016335725784,-0.2044576704502106,-0.3819234371185303,-0.04420633614063263,-0.2129572778940201,0.2255632877349854,XArbitraryZVertical,0.03495764037103352,0.0144346755634526,-0.03550248031207635,0.9986537070874051,0.03131265193223953,-0.06879621744155884,-0.9971392154693604,0,0,0,-1,-1,12946.5868005,unknown,2,2024-04-18T12:49:09.530+02:00,2024-04-17T14:37:41.930+02:00,4191,1.185061,0,0,3466.396,19,7,2024-04-18T12:07:18.770+02:00,735130152.139055,0,-54.71001,100.9381
2024-04-18T12:49:13.114+02:00,12950.168839875,0.0924072265625,0.1060638427734375,-0.826171875,12950.118950875,-0.07215195688186707,0.03139217035079221,0.06885060446684999,-0.2127016335725784,-0.2044576704502106,-0.3819234371185303,-0.04420633614063263,-0.2129572778940201,0.2255632877349854,XArbitraryZVertical,0.03495764037103352,0.0144346755634526,-0.03550248031207635,0.9986537070874051,0.03131265193223953,-0.06879621744155884,-0.9971392154693604,0,0,0,-1,-1,12946.5868005,unknown,2,2024-04-18T12:49:09.530+02:00,2024-04-17T14:37:41.930+02:00,4191,1.185061,0,0,3466.396,19,7,2024-04-18T12:07:18.770+02:00,735130152.139055,0,-54.71001,100.9381
2024-04-18T12:49:13.148+02:00,12950.203761875,0.0869293212890625,0.1999969482421875,-0.999786376953125,12950.178816875,-0.09408591719987285,0.04310048411269113,0.03389096946456984,-0.7028743028640747,-0.08460330218076706,-0.2505254447460175,0.04934481903910637,0.1399483680725098,0.1723257303237915,XArbitraryZVertical,0.01793518664614903,0.02072499548424512,-0.04664321009718293,0.9985355416756997,0.04306240007281303,-0.03388448059558868,-0.9984976053237915,0,0,0,-1,-1,12946.5868005,unknown,2,2024-04-18T12:49:09.530+02:00,2024-04-17T14:37:41.930+02:00,4191,1.185061,0,0,3466.396,19,7,2024-04-18T12:07:18.770+02:00,735130152.139055,0,-54.71001,100.9381
2024-04-18T12:49:13.183+02:00,12950.238683875,-0.0176849365234375,0.1464691162109375,-0.942840576171875,12950.178816875,-0.09408591719987285,0.04310048411269113,0.03389096946456984,-0.7028743028640747,-0.08460330218076706,-0.2505254447460175,0.04934481903910637,0.1399483680725098,0.1723257303237915,XArbitraryZVertical,0.01793518664614903,0.02072499548424512,-0.04664321009718293,0.9985355416756997,0.04306240007281303,-0.03388448059558868,-0.9984976053237915,0,0,0,-1,-1,12946.5868005,unknown,2,2024-04-18T12:49:09.530+02:00,2024-04-17T14:37:41.930+02:00,4191,1.185061,0,0,3466.396,19,7,2024-04-18T12:07:18.770+02:00,735130152.139055,0,-54.71001,100.9381
2024-04-18T12:49:13.218+02:00,12950.273606875,0.0343170166015625,0.3521728515625,-0.9961700439453125,12950.238683875,-0.1058149216751316,0.02386952354111262,0.01706258157140767,-0.09979940205812454,-0.2365929633378983,-0.245610848069191,-0.01718044281005859,0.1463342607021332,0.04575800895690918,XArbitraryZVertical,0.009149748243463053,0.01146622405106332,-0.05277541627965768,0.9984986844700167,0.02386378310620785,-0.01706175319850445,-0.9995695948600769,0,0,0,-1,-1,12946.5868005,unknown,2,2024-04-18T12:49:09.530+02:00,2024-04-17T14:37:41.930+02:00,4191,1.185061,0,0,3466.396,19,7,2024-04-18T12:07:18.770+02:00,735130152.139055,0,-54.71001,100.9381
2024-04-18T12:49:13.253+02:00,12950.308528875,-0.0080413818359375,0.3885345458984375,-1.130691528320312,12950.298550875,-0.1175500644236487,0.01571702178565517,0.002118340066071308,-0.3612333834171295,-0.158223882317543,-0.1134320870041847,0.009582720696926117,0.3788426220417023,-0.0798833966255188,XArbitraryZVertical,0.001518921387010957,0.007782640386057881,-0.05873103748136238,0.9982424357656363,0.01571633853018284,-0.002118338597938418,-0.9998742341995239,0,0,0,-1,-1,12946.5868005,unknown,2,2024-04-18T12:49:09.530+02:00,2024-04-17T14:37:41.930+02:00,4191,1.185061,0,0,3466.396,19,7,2024-04-18T12:07:18.770+02:00,735130152.139055,0,-54.71001,100.9381
2024-04-18T12:49:13.288+02:00,12950.343450875,0.020294189453125,0.4550323486328125,-1.178054809570312,12950.298550875,-0.1175500644236487,0.01571702178565517,0.002118340066071308,-0.3612333834171295,-0.158223882317543,-0.1134320870041847,0.009582720696926117,0.3788426220417023,-0.0798833966255188,XArbitraryZVertical,0.001518921387010957,0.007782640386057881,-0.05873103748136238,0.9982424357656363,0.01571633853018284,-0.002118338597938418,-0.9998742341995239,0,0,0,-1,-1,12946.5868005,unknown,2,2024-04-18T12:49:09.530+02:00,2024-04-17T14:37:41.930+02:00,4191,1.185061,0,0,3466.396,19,7,2024-04-18T12:07:18.770+02:00,735130152.139055,0,-54.71001,100.9381
2024-04-18T12:49:13.323+02:00,12950.378373875,-0.065948486328125,0.251495361328125,-1.03143310546875,12950.358417875,-0.1116556144576539,0.01275239257315164,-0.01285540870237175,-0.03512045368552208,-0.05227369070053101,0.3427720367908478,-5.569122731685638e-05,0.4137960076332092,-0.1645621061325073,XArbitraryZVertical,-0.006061740558432584,0.006724735433767646,-0.05583743853228577,0.9983989335794194,0.01275099348276854,0.0128550548106432,-0.9998360872268677,0,0,0,-1,-1,12946.5868005,unknown,2,2024-04-18T12:49:09.530+02:00,2024-04-17T14:37:41.930+02:00,4191,1.185061,0,0,3466.396,19,7,2024-04-18T12:07:18.770+02:00,735130152.139055,0,-54.71001,100.9381
2024-04-18T12:49:13.358+02:00,12950.413295875,-0.087310791015625,0.1811981201171875,-1.101882934570312,12950.358417875,-0.1116556144576539,0.01275239257315164,-0.01285540870237175,-0.03512045368552208,-0.05227369070053101,0.3427720367908478,-5.569122731685638e-05,0.4137960076332092,-0.1645621061325073,XArbitraryZVertical,-0.006061740558432584,0.006724735433767646,-0.05583743853228577,0.9983989335794194,0.01275099348276854,0.0128550548106432,-0.9998360872268677,0,0,0,-1,-1,12946.5868005,unknown,2,2024-04-18T12:49:09.530+02:00,2024-04-17T14:37:41.930+02:00,4191,1.185061,0,0,3466.396,19,7,2024-04-18T12:07:18.770+02:00,735130152.139055,0,-54.71001,100.9381
2024-04-18T12:49:13.393+02:00,12950.448217875,-0.004150390625,0.23004150390625,-1.078338623046875,12950.418284875,-0.09509017413409436,0.006244253665683388,-0.006314415288776068,0.2518006265163422,0.1140070930123329,0.1671651750802994,-0.1049074307084084,0.1668118983507156,-0.118279755115509,XArbitraryZVertical,-0.003005234118765892,0.003268629959315268,-0.0475365500801056,0.9988597072413778,0.006244088523089886,0.006314373109489679,-0.9999605417251587,0,0,0,-1,-1,12946.5868005,unknown,2,2024-04-18T12:49:09.530+02:00,2024-04-17T14:37:41.930+02:00,4191,1.185061,0,0,3466.396,19,7,2024-04-18T12:07:18.770+02:00,735130152.139055,0,-54.71001,100.9381
2024-04-18T12:49:13.428+02:00,12950.483140875,0.0127716064453125,0.1881561279296875,-0.979095458984375,12950.478151875,-0.07889123669063623,0.01538660909818914,-0.005728794232703623,-0.10744459182024,0.2989039719104767,0.4236776232719421,0.003565657883882523,0.2508325576782227,-0.09750109910964966,XArbitraryZVertical,-0.002558696124296964,0.007800167852083513,-0.03945608034977869,0.9991875841652733,0.01538574974983931,0.005728763062506914,-0.9998652338981628,0,0,0,-1,-1,12946.5868005,unknown,2,2024-04-18T12:49:09.530+02:00,2024-04-17T14:37:41.930+02:00,4191,1.185061,0,0,3466.396,19,7,2024-04-18T12:07:18.770+02:00,735130152.139055,0,-54.71001,100.9381
2024-04-18T12:49:13.463+02:00,12950.518062875,0.0305938720703125,0.164581298828125,-1.022018432617188,12950.478151875,-0.07889123669063623,0.01538660909818914,-0.005728794232703623,-0.10744459182024,0.2989039719104767,0.4236776232719421,0.003565657883882523,0.2508325576782227,-0.09750109910964966,XArbitraryZVertical,-0.002558696124296964,0.007800167852083513,-0.03945608034977869,0.9991875841652733,0.01538574974983931,0.005728763062506914,-0.9998652338981628,0,0,0,-1,-1,12946.5868005,unknown,2,2024-04-18T12:49:09.530+02:00,2024-04-17T14:37:41.930+02:00,4191,1.185061,0,0,3466.396,19,7,2024-04-18T12:07:18.770+02:00,735130152.139055,0,-54.71001,100.9381
2024-04-18T12:49:13.498+02:00,12950.552985875,0.0699920654296875,0.1446990966796875,-0.9068450927734375,12950.538018875,-0.05784609901664055,0.02850218993013714,-0.0107939767426149,0.06071140244603157,0.2465643286705017,0.3300097286701202,0.02359682880342007,0.1579684913158417,0.002144873142242432,XArbitraryZVertical,-0.004982049336878327,0.01440050361978012,-0.02899253666981635,0.9994634949395967,0.02849667146801949,0.01079376693814993,-0.9995356202125549,0,0,0,-1,-1,12946.5868005,unknown,2,2024-04-18T12:49:09.530+02:00,2024-04-17T14:37:41.930+02:00,4191,1.185061,0,0,3466.396,19,7,2024-04-18T12:07:18.770+02:00,735130152.139055,0,-54.71001,100.9381
2024-04-18T12:49:13.533+02:00,12950.587907875,0.0907440185546875,0.1718902587890625,-1.079879760742188,12950.538018875,-0.05784609901664055,0.02850218993013714,-0.0107939767426149,0.06071140244603157,0.2465643286705017,0.3300097286701202,0.02359682880342007,0.1579684913158417,0.002144873142242432,XArbitraryZVertical,-0.004982049336878327,0.01440050361978012,-0.02899253666981635,0.9994634949395967,0.02849667146801949,0.01079376693814993,-0.9995356202125549,0,0,0,-1,-1,12946.5868005,unknown,2,2024-04-18T12:49:09.530+02:00,2024-04-17T14:37:41.930+02:00,4191,1.185061,0,0,3466.396,19,7,2024-04-18T12:07:18.770+02:00,735130152.139055,0,-54.71001,100.9381
2024-04-18T12:49:13.568+02:00,12950.622829875,0.116180419921875,0.0988311767578125,-1.007949829101562,12950.597885875,-0.04100688110400823,0.03119858666863262,-0.008381699266433654,0.1635331660509109,0.07569630444049835,0.3043206036090851,0.05955158174037933,0.1635086983442307,-0.08040148019790649,XArbitraryZVertical,-0.003869645589125412,0.01568115451300503,-0.02056468639687008,0.999658095170621,0.03119242936372757,0.008381601423025131,-0.999478280544281,0,0,0,-1,-1,12946.5868005,unknown,2,2024-04-18T12:49:09.530+02:00,2024-04-17T14:37:41.930+02:00,4191,1.185061,0,0,3466.396,19,7,2024-04-18T12:07:18.770+02:00,735130152.139055,0,-54.71001,100.9381
2024-04-18T12:49:13.603+02:00,12950.657752875,0.109588623046875,-0.0363006591796875,-0.9899749755859375,12950.597885875,-0.04100688110400823,0.03119858666863262,-0.008381699266433654,0.1635331660509109,0.07569630444049835,0.3043206036090851,0.05955158174037933,0.1635086983442307,-0.08040148019790649,XArbitraryZVertical,-0.003869645589125412,0.01568115451300503,-0.02056468639687008,0.999658095170621,0.03119242936372757,0.008381601423025131,-0.999478280544281,0,0,0,-1,-1,12946.5868005,unknown,2,2024-04-18T12:49:09.530+02:00,2024-04-17T14:37:41.930+02:00,4191,1.185061,0,0,3466.396,19,7,2024-04-18T12:07:18.770+02:00,735130152.139055,0,-54.71001,100.9381
2024-04-18T12:49:13.637+02:00,12950.692674875,-0.06292724609375,-0.3644866943359375,-0.783355712890625,12950.657752875,-0.01474418961332489,0.03984324913932775,-0.003668899708070687,0.07129053771495819,0.07072936743497849,0.5213144421577454,0.05248323082923889,-0.01084047649055719,0.02132487297058105,XArbitraryZVertical,-0.00168718211266524,0.0199332522280621,-0.007407094315769002,0.9997724884395839,0.03983243927359581,0.003668891498818994,-0.9991996288299561,0,0,0,-1,-1,12946.5868005,unknown,2,2024-04-18T12:49:09.530+02:00,2024-04-17T14:37:41.930+02:00,4191,1.185061,0,0,3466.396,19,7,2024-04-18T12:07:18.770+02:00,735130152.139055,0,-54.71001,100.9381
2024-04-18T12:49:13.672+02:00,12950.727596875,0.0186614990234375,-0.3175506591796875,-1.010452270507812,12950.717618875,0.009200161466170467,0.03870960989003813,0.008804652308735764,-0.060319684445858,0.05015603452920914,0.22886922955513,-0.06877352297306061,-0.368636816740036,0.1285609006881714,XArbitraryZVertical,0.004312413873116279,0.01937345129850507,0.004684358006189044,0.9997920469366728,0.03869844228029251,-0.008804538287222385,-0.9992121458053589,0,0,0,-1,-1,12946.5868005,unknown,2,2024-04-18T12:49:09.530+02:00,2024-04-17T14:37:41.930+02:00,4191,1.185061,0,0,3466.396,19,7,2024-04-18T12:07:18.770+02:00,735130152.139055,0,-54.71001,100.9381
2024-04-18T12:49:13.707+02:00,12950.762519875,-0.0394287109375,-0.39666748046875,-0.9274444580078125,12950.717618875,0.009200161466170467,0.03870960989003813,0.008804652308735764,-0.060319684445858,0.05015603452920914,0.22886922955513,-0.06877352297306061,-0.368636816740036,0.1285609006881714,XArbitraryZVertical,0.004312413873116279,0.01937345129850507,0.004684358006189044,0.9997920469366728,0.03869844228029251,-0.008804538287222385,-0.9992121458053589,0,0,0,-1,-1,12946.5868005,unknown,2,2024-04-18T12:49:09.530+02:00,2024-04-17T14:37:41.930+02:00,4191,1.185061,0,0,3466.396,19,7,2024-04-18T12:07:18.770+02:00,735130152.139055,0,-54.71001,100.9381
2024-04-18T12:49:13.742+02:00,12950.797441875,-6.103515625e-05,-0.3926239013671875,-1.080810546875,12950.777485875,0.0265600839556492,0.06074929243416016,-0.01073168761096474,-0.2207759767770767,0.1695438176393509,0.1940129697322845,-0.0974821150302887,-0.4071395099163055,0.04138702154159546,XArbitraryZVertical,-0.005766166240550105,0.03029563421002275,0.01311038830644629,0.9994384652748389,0.06070843711495399,0.0107314819470048,-0.998097836971283,0,0,0,-1,-1,12946.5868005,unknown,2,2024-04-18T12:49:09.530+02:00,2024-04-17T14:37:41.930+02:00,4191,1.185061,0,0,3466.396,19,7,2024-04-18T12:07:18.770+02:00,735130152.139055,0,-54.71001,100.9381
2024-04-18T12:49:13.777+02:00,12950.832363875,0.0136566162109375,-0.373626708984375,-1.079452514648438,12950.777485875,0.0265600839556492,0.06074929243416016,-0.01073168761096474,-0.2207759767770767,0.1695438176393509,0.1940129697322845,-0.0974821150302887,-0.4071395099163055,0.04138702154159546,XArbitraryZVertical,-0.005766166240550105,0.03029563421002275,0.01311038830644629,0.9994384652748389,0.06070843711495399,0.0107314819470048,-0.998097836971283,0,0,0,-1,-1,12946.5868005,unknown,2,2024-04-18T12:49:09.530+02:00,2024-04-17T14:37:41.930+02:00,4191,1.185061,0,0,3466.396,19,7,2024-04-18T12:07:18.770+02:00,735130152.139055,0,-54.71001,100.9381
2024-04-18T12:49:13.812+02:00,12950.86728629167,0.03277587890625,-0.3228912353515625,-1.032073974609375,12950.837352875,0.02885320496012359,0.0603366048581129,-0.007927199656012043,-0.002762958873063326,0.03503952920436859,-0.06688626110553741,-0.04799952730536461,-0.3769761323928833,-0.06885236501693726,XArbitraryZVertical,-0.004396514984881379,0.0301031962586321,0.01429987970953226,0.9994348742557733,0.06029810756444931,0.007927116937935352,-0.9981489181518555,0,0,0,-1,-1,12946.5868005,unknown,2,2024-04-18T12:49:09.530+02:00,2024-04-17T14:37:41.930+02:00,4191,1.185061,0,0,3466.396,19,7,2024-04-18T12:07:18.770+02:00,735130152.139055,0,-54.71001,100.9381
2024-04-18T12:49:13.847+02:00,12950.90220829167,0.02288818359375,-0.3213958740234375,-0.98785400390625,12950.89721929167,0.02358002249867111,0.06012324185529789,-0.001671956119420346,0.271589457988739,-0.1131482869386673,-0.1844737678766251,-0.0440041795372963,-0.3300105333328247,0.01064294576644897,XArbitraryZVertical,-0.001189907383574717,0.03004514343625193,0.01175928230298886,0.9994786234124238,0.0600869432091713,0.001671955338679254,-0.998191773891449,0,0,0,-1,-1,12946.5868005,unknown,2,2024-04-18T12:49:09.530+02:00,2024-04-17T14:37:41.930+02:00,4191,1.185061,0,0,3466.396,19,7,2024-04-18T12:07:18.770+02:00,735130152.139055,0,-54.71001,100.9381
2024-04-18T12:49:13.882+02:00,12950.93713029167,0.05047607421875,-0.218658447265625,-0.9967041015625,12950.89721929167,0.02358002249867111,0.06012324185529789,-0.001671956119420346,0.271589457988739,-0.1131482869386673,-0.1844737678766251,-0.0440041795372963,-0.3300105333328247,0.01064294576644897,XArbitraryZVertical,-0.001189907383574717,0.03004514343625193,0.01175928230298886,0.9994786234124238,0.0600869432091713,0.001671955338679254,-0.998191773891449,0,0,0,-1,-1,12946.5868005,unknown,2,2024-04-18T12:49:09.530+02:00,2024-04-17T14:37:41.930+02:00,4191,1.185061,0,0,3466.396,19,7,2024-04-18T12:07:18.770+02:00,735130152.139055,0,-54.71001,100.9381
2024-04-18T12:49:13.917+02:00,12950.97205329167,0.0529937744140625,-0.1500091552734375,-1.160751342773438,12950.95708629167,0.006247160146209283,0.04345728177060338,0.01408628019254448,0.2494077533483505,-0.2749498188495636,-0.2802255749702454,0.01623782142996788,-0.147245317697525,-0.05786693096160889,XArbitraryZVertical,0.006973520967941214,0.02174828077481405,0.003275784024483022,0.9997337843259724,0.04343929514288902,-0.01408581435680389,-0.9989567399024963,0,0,0,-1,-1,12946.5868005,unknown,2,2024-04-18T12:49:09.530+02:00,2024-04-17T14:37:41.930+02:00,4191,1.185061,0,0,3466.396,19,7,2024-04-18T12:07:18.770+02:00,735130152.139055,0,-54.71001,100.9381
2024-04-18T12:49:13.961+02:00,12951.00697529167,0.0564117431640625,-0.1873626708984375,-1.013015747070312,12950.95708629167,0.006247160146209283,0.04345728177060338,0.01408628019254448,0.2494077533483505,-0.2749498188495636,-0.2802255749702454,0.01623782142996788,-0.147245317697525,-0.05786693096160889,XArbitraryZVertical,0.006973520967941214,0.02174828077481405,0.003275784024483022,0.9997337843259724,0.04343929514288902,-0.01408581435680389,-0.9989567399024963,0,0,0,-1,-1,12946.5868005,unknown,2,2024-04-18T12:49:09.530+02:00,2024-04-17T14:37:41.930+02:00,4191,1.185061,0,0,3466.396,19,7,2024-04-18T12:07:18.770+02:00,735130152.139055,0,-54.71001,100.9381
2024-04-18T12:49:13.987+02:00,12951.04189729167,0.0323028564453125,-0.195068359375,-1.036285400390625,12951.01695329167,-0.008875943901183309,0.03499332719520657,0.03959309160943412,0.3995907008647919,-0.2720952332019806,-0.2167273908853531,0.02145297080278397,-0.1477798819541931,-0.01441115140914917,XArbitraryZVertical,0.01986965886290012,0.01740433392959841,-0.004090078945372276,0.9996426826857687,0.03495876863598824,-0.0395827479660511,-0.9986045956611633,0,0,0,-1,-1,12946.5868005,unknown,2,2024-04-18T12:49:09.530+02:00,2024-04-17T14:37:41.930+02:00,4191,1.185061,0,0,3466.396,19,7,2024-04-18T12:07:18.770+02:00,735130152.139055,0,-54.71001,100.9381
2024-04-18T12:49:14.022+02:00,12951.07682029167,0.02410888671875,-0.22735595703125,-0.9349517822265625,12951.01695329167,-0.008875943901183309,0.03499332719520657,0.03959309160943412,0.3995907008647919,-0.2720952332019806,-0.2167273908853531,0.02145297080278397,-0.1477798819541931,-0.01441115140914917,XArbitraryZVertical,0.01986965886290012,0.01740433392959841,-0.004090078945372276,0.9996426826857687,0.03495876863598824,-0.0395827479660511,-0.9986045956611633,0,0,0,-1,-1,12946.5868005,unknown,2,2024-04-18T12:49:09.530+02:00,2024-04-17T14:37:41.930+02:00,4191,1.185061,0,0,3466.396,19,7,2024-04-18T12:07:18.770+02:00,735130152.139055,0,-54.71001,100.9381
2024-04-18T12:49:14.056+02:00,12951.11174229167,-0.0020751953125,-0.191253662109375,-1.014556884765625,12951.07682029167,-0.02015628467189855,0.02997557116777457,0.04991568407373474,0.04648346081376076,0.2003006339073181,-0.07400999963283539,0.006534747779369354,-0.1622937172651291,0.006408214569091797,XArbitraryZVertical,0.02510217435035776,0.01473032575203424,-0.009699710453973507,0.9995293162416743,0.0299337524920702,-0.04989495873451233,-0.9983057975769043,0,0,0,-1,-1,12946.5868005,unknown,2,2024-04-18T12:49:09.530+02:00,2024-04-17T14:37:41.930+02:00,4191,1.185061,0,0,3466.396,19,7,2024-04-18T12:07:18.770+02:00,735130152.139055,0,-54.71001,100.9381
2024-04-18T12:49:14.091+02:00,12951.14666429167,0.078643798828125,-0.09326171875,-0.9459381103515625,12951.13668729167,-0.03970503168317777,0.0301989394179709,0.04999769345212458,0.09525565803050995,0.1292558908462524,-0.3361601233482361,-0.00668860599398613,-0.07239858061075211,-0.05053311586380005,XArbitraryZVertical,0.02528810624221567,0.0145950547090751,-0.01946540569122295,0.9993841065660806,0.03015661798417568,-0.04997686669230461,-0.9982950091362,0,0,0,-1,-1,12946.5868005,unknown,2,2024-04-18T12:49:09.530+02:00,2024-04-17T14:37:41.930+02:00,4191,1.185061,0,0,3466.396,19,7,2024-04-18T12:07:18.770+02:00,735130152.139055,0,-54.71001,100.9381
2024-04-18T12:49:14.126+02:00,12951.18158729167,-0.0088348388671875,-0.1495208740234375,-0.7910919189453125,12951.13668729167,-0.03970503168317777,0.0301989394179709,0.04999769345212458,0.09525565803050995,0.1292558908462524,-0.3361601233482361,-0.00668860599398613,-0.07239858061075211,-0.05053311586380005,XArbitraryZVertical,0.02528810624221567,0.0145950547090751,-0.01946540569122295,0.9993841065660806,0.03015661798417568,-0.04997686669230461,-0.9982950091362,0,0,0,-1,-1,12946.5868005,unknown,2,2024-04-18T12:49:09.530+02:00,2024-04-17T14:37:41.930+02:00,4191,1.185061,0,0,3466.396,19,7,2024-04-18T12:07:18.770+02:00,735130152.139055,0,-54.71001,100.9381
2024-04-18T12:49:14.161+02:00,12951.21650929167,-0.0125579833984375,-0.026519775390625,-1.03704833984375,12951.19655429167,-0.05153230748180063,0.02835064459828657,0.03316794821079879,-0.6284438967704773,-0.2943867444992065,-0.2845917642116547,-0.05906246602535248,-0.09347078204154968,0.2153569459915161,XArbitraryZVertical,0.01694118494683654,0.01374099877266463,-0.02552218600434662,0.9994362227522073,0.02833125554025173,-0.03316186740994453,-0.9990483522415161,0,0,0,-1,-1,12946.5868005,unknown,2,2024-04-18T12:49:09.530+02:00,2024-04-17T14:37:41.930+02:00,4191,1.185061,0,0,3466.396,19,7,2024-04-18T12:07:18.770+02:00,735130152.139055,0,-54.71001,100.9381
2024-04-18T12:49:14.196+02:00,12951.25143229167,-0.007568359375,0.13287353515625,-0.88214111328125,12951.19655429167,-0.05153230748180063,0.02835064459828657,0.03316794821079879,-0.6284438967704773,-0.2943867444992065,-0.2845917642116547,-0.05906246602535248,-0.09347078204154968,0.2153569459915161,XArbitraryZVertical,0.01694118494683654,0.01374099877266463,-0.02552218600434662,0.9994362227522073,0.02833125554025173,-0.03316186740994453,-0.9990483522415161,0,0,0,-1,-1,12946.5868005,unknown,2,2024-04-18T12:49:09.530+02:00,2024-04-17T14:37:41.930+02:00,4191,1.185061,0,0,3466.396,19,7,2024-04-18T12:07:18.770+02:00,735130152.139055,0,-54.71001,100.9381
2024-04-18T12:49:14.231+02:00,12951.28635429167,0.0031280517578125,0.2843170166015625,-0.9767913818359375,12951.25642029167,-0.07215838835600237,0.0217383613159378,0.01607595507398324,-0.3810859024524689,-0.1647257208824158,-0.3610011339187622,-0.03023299388587475,0.1254197955131531,0.1022804379463196,XArbitraryZVertical,0.008424230632027376,0.01057162099428192,-0.03598076167513897,0.9992611393384122,0.02173384092748165,-0.01607526279985905,-0.9996345639228821,0,0,0,-1,-1,12946.5868005,unknown,2,2024-04-18T12:49:09.530+02:00,2024-04-17T14:37:41.930+02:00,4191,1.185061,0,0,3466.396,19,7,2024-04-18T12:07:18.770+02:00,735130152.139055,0,-54.71001,100.9381
2024-04-18T12:49:14.266+02:00,12951.32127629167,0.02374267578125,0.3961639404296875,-1.227462768554688,12951.31628729167,-0.08728329484353267,-0.006896817695291282,-0.005844500097325724,-0.0902983546257019,-0.4877799451351166,-0.252562552690506,0.02877773903310299,0.3642269968986511,-0.1759288907051086,XArbitraryZVertical,-0.003069891405806748,-0.003317613301099773,-0.04361727898574618,0.9990381651133111,-0.006896645296365023,0.005844466853886843,-0.9999591112136841,0,0,0,-1,-1,12946.5868005,unknown,2,2024-04-18T12:49:09.530+02:00,2024-04-17T14:37:41.930+02:00,4191,1.185061,0,0,3466.396,19,7,2024-04-18T12:07:18.770+02:00,735130152.139055,0,-54.71001,100.9381
2024-04-18T12:49:14.301+02:00,12951.35619929167,-0.015655517578125,0.300628662109375,-1.147445678710938,12951.31628729167,-0.08728329484353267,-0.006896817695291282,-0.005844500097325724,-0.0902983546257019,-0.4877799451351166,-0.252562552690506,0.02877773903310299,0.3642269968986511,-0.1759288907051086,XArbitraryZVertical,-0.003069891405806748,-0.003317613301099773,-0.04361727898574618,0.9990381651133111,-0.006896645296365023,0.005844466853886843,-0.9999591112136841,0,0,0,-1,-1,12946.5868005,unknown,2,2024-04-18T12:49:09.530+02:00,2024-04-17T14:37:41.930+02:00,4191,1.185061,0,0,3466.396,19,7,2024-04-18T12:07:18.770+02:00,735130152.139055,0,-54.71001,100.9381
2024-04-18T12:49:14.336+02:00,12951.39112129167,-0.0326690673828125,0.31793212890625,-1.07183837890625,12951.37615429167,-0.09549168268010572,-0.02911296228118569,-0.000877273301256504,0.04401417821645737,-0.1594612598419189,-0.01907670497894287,0.005610290914773941,0.3033372461795807,-0.1451995372772217,XArbitraryZVertical,-0.001132812913715254,-0.0145184432528935,-0.04771625977896952,0.9987548610262932,-0.02910883910953999,0.0008772732107900083,-0.9995758533477783,0,0,0,-1,-1,12946.5868005,unknown,2,2024-04-18T12:49:09.530+02:00,2024-04-17T14:37:41.930+02:00,4191,1.185061,0,0,3466.396,19,7,2024-04-18T12:07:18.770+02:00,735130152.139055,0,-54.71001,100.9381
2024-04-18T12:49:14.371+02:00,12951.42604329167,-0.0788116455078125,0.2214202880859375,-1.047576904296875,12951.37615429167,-0.09549168268010572,-0.02911296228118569,-0.000877273301256504,0.04401417821645737,-0.1594612598419189,-0.01907670497894287,0.005610290914773941,0.3033372461795807,-0.1451995372772217,XArbitraryZVertical,-0.001132812913715254,-0.0145184432528935,-0.04771625977896952,0.9987548610262932,-0.02910883910953999,0.0008772732107900083,-0.9995758533477783,0,0,0,-1,-1,12946.5868005,unknown,2,2024-04-18T12:49:09.530+02:00,2024-04-17T14:37:41.930+02:00,4191,1.185061,0,0,3466.396,19,7,2024-04-18T12:07:18.770+02:00,735130152.139055,0,-54.71001,100.9381
2024-04-18T12:49:14.406+02:00,12951.46096529167,-0.0876617431640625,0.1961669921875,-1.0970458984375,12951.43602129167,-0.09100990518605039,-0.03118327681637853,0.003724071409004065,0.1351649016141891,0.01489598676562309,0.1059375926852226,-0.04763364791870117,0.2251444011926651,-0.04806995391845703,XArbitraryZVertical,0.001150659058227959,-0.01565953183324695,-0.04551264052152527,0.9988404030018975,-0.03117800690233707,-0.003724062815308571,-0.9995068907737732,0,0,0,-1,-1,12946.5868005,unknown,2,2024-04-18T12:49:09.530+02:00,2024-04-17T14:37:41.930+02:00,4191,1.185061,0,0,3466.396,19,7,2024-04-18T12:07:18.770+02:00,735130152.139055,0,-54.71001,100.9381
2024-04-18T12:49:14.447+02:00,12951.49588829167,-0.03778076171875,0.228759765625,-1.033599853515625,12951.43602129167,-0.09100990518605039,-0.03118327681637853,0.003724071409004065,0.1351649016141891,0.01489598676562309,0.1059375926852226,-0.04763364791870117,0.2251444011926651,-0.04806995391845703,XArbitraryZVertical,0.001150659058227959,-0.01565953183324695,-0.04551264052152527,0.9988404030018975,-0.03117800690233707,-0.003724062815308571,-0.9995068907737732,0,0,0,-1,-1,12946.5868005,unknown,2,2024-04-18T12:49:09.530+02:00,2024-04-17T14:37:41.930+02:00,4191,1.185061,0,0,3466.396,19,7,2024-04-18T12:07:18.770+02:00,735130152.139055,0,-54.71001,100.9381
2024-04-18T12:49:14.476+02:00,12951.53081029167,-0.0007781982421875,0.1842041015625,-1.019424438476562,12951.49588829167,-0.08448344676140704,-0.01746452736152116,0.01106115329374377,0.03140748292207718,0.3691252768039703,0.1305384635925293,-0.02625386975705624,0.22834612429142,-0.06219488382339478,XArbitraryZVertical,0.005156658189406061,-0.008957770820094088,-0.04227515461941268,0.9990525908472752,-0.01746257208287716,-0.01106092799454927,-0.9997863173484802,0,0,0,-1,-1,12946.5868005,unknown,2,2024-04-18T12:49:09.530+02:00,2024-04-17T14:37:41.930+02:00,4191,1.185061,0,0,3466.396,19,7,2024-04-18T12:07:18.770+02:00,735130152.139055,0,-54.71001,100.9381
2024-04-18T12:49:14.510+02:00,12951.56573329167,-0.0148468017578125,0.1418914794921875,-0.99346923828125,12951.55575529167,-0.07295714780900164,-0.007223530915957696,0.01519296089560784,0.1881876289844513,0.09467976540327072,0.1991365104913712,-0.001001862343400717,0.1544441282749176,-0.02859914302825928,XArbitraryZVertical,0.007459584919709124,-0.003886293182817787,-0.03649660937654858,0.999298454661892,-0.007222634274512529,-0.01519237644970417,-0.9998584985733032,0,0,0,-1,-1,12946.5868005,unknown,2,2024-04-18T12:49:09.530+02:00,2024-04-17T14:37:41.930+02:00,4191,1.185061,0,0,3466.396,19,7,2024-04-18T12:07:18.770+02:00,735130152.139055,0,-54.71001,100.9381
2024-04-18T12:49:14.546+02:00,12951.60065529167,0.0125579833984375,0.1103057861328125,-0.9730377197265625,12951.55575529167,-0.07295714780900164,-0.007223530915957696,0.01519296089560784,0.1881876289844513,0.09467976540327072,0.1991365104913712,-0.001001862343400717,0.1544441282749176,-0.02859914302825928,XArbitraryZVertical,0.007459584919709124,-0.003886293182817787,-0.03649660937654858,0.999298454661892,-0.007222634274512529,-0.01519237644970417,-0.9998584985733032,0,0,0,-1,-1,12946.5868005,unknown,2,2024-04-18T12:49:09.530+02:00,2024-04-17T14:37:41.930+02:00,4191,1.185061,0,0,3466.396,19,7,2024-04-18T12:07:18.770+02:00,735130152.139055,0,-54.71001,100.9381
2024-04-18T12:49:14.580+02:00,12951.63557729167,0.037322998046875,0.0911102294921875,-1.026763916015625,12951.61562229167,-0.05855640759627447,-0.003786439964474553,0.02502090802944994,-0.08513200283050537,0.07131241261959076,0.3076582252979279,0.01771651208400726,0.1315246820449829,0.0173952579498291,XArbitraryZVertical,0.0124493262699258,-0.002258480538564702,-0.02929535279539511,0.9994906911982169,-0.003785245819017291,-0.02501829713582993,-0.9996798038482666,0,0,0,-1,-1,12946.5868005,unknown,2,2024-04-18T12:49:09.530+02:00,2024-04-17T14:37:41.930+02:00,4191,1.185061,0,0,3466.396,19,7,2024-04-18T12:07:18.770+02:00,735130152.139055,0,-54.71001,100.9381
2024-04-18T12:49:14.615+02:00,12951.67050029167,0.009735107421875,0.0298614501953125,-0.9727020263671875,12951.61562229167,-0.05855640759627447,-0.003786439964474553,0.02502090802944994,-0.08513200283050537,0.07131241261959076,0.3076582252979279,0.01771651208400726,0.1315246820449829,0.0173952579498291,XArbitraryZVertical,0.0124493262699258,-0.002258480538564702,-0.02929535279539511,0.9994906911982169,-0.003785245819017291,-0.02501829713582993,-0.9996798038482666,0,0,0,-1,-1,12946.5868005,unknown,2,2024-04-18T12:49:09.530+02:00,2024-04-17T14:37:41.930+02:00,4191,1.185061,0,0,3466.396,19,7,2024-04-18T12:07:18.770+02:00,735130152.139055,0,-54.71001,100.9381
2024-04-18T12:49:14.650+02:00,12951.70542229167,0.01190185546875,-0.033905029296875,-0.9609527587890625,12951.67548829167,-0.03948422292369832,0.001488461885549663,0.02067527534215342,0.1298933923244476,-0.02629769220948219,0.2772602736949921,0.006415901705622673,0.05587587505578995,0.04058718681335449,XArbitraryZVertical,0.01035012651465204,0.0005399762323261807,-0.01973207556924524,0.9997516478804752,0.001488143228925765,-0.02067380212247372,-0.9997851848602295,0,0,0,-1,-1,12946.5868005,unknown,2,2024-04-18T12:49:09.530+02:00,2024-04-17T14:37:41.930+02:00,4191,1.185061,0,0,3466.396,19,7,2024-04-18T12:07:18.770+02:00,735130152.139055,0,-54.71001,100.9381
2024-04-18T12:49:14.685+02:00,12951.74034429167,0.0263824462890625,-0.1105804443359375,-0.941375732421875,12951.73535529167,-0.02074799250968557,0.01138737827594486,0.01269188708888253,-0.2781479358673096,0.336662769317627,0.3253222703933716,0.01253955997526646,-0.05241766199469566,0.1043010354042053,XArbitraryZVertical,0.00640452009281247,0.005627407026755937,-0.0103373032716782,0.9999102656278173,0.01138621475547552,-0.01269154623150826,-0.9998546242713928,0,0,0,-1,-1,12946.5868005,unknown,2,2024-04-18T12:49:09.530+02:00,2024-04-17T14:37:41.930+02:00,4191,1.185061,0,0,3466.396,19,7,2024-04-18T12:07:18.770+02:00,735130152.139055,0,-54.71001,100.9381
2024-04-18T12:49:14.720+02:00,12951.77526729167,-0.0514984130859375,-0.3167266845703125,-0.8214111328125,12951.73535529167,-0.02074799250968557,0.01138737827594486,0.01269188708888253,-0.2781479358673096,0.336662769317627,0.3253222703933716,0.01253955997526646,-0.05241766199469566,0.1043010354042053,XArbitraryZVertical,0.00640452009281247,0.005627407026755937,-0.0103373032716782,0.9999102656278173,0.01138621475547552,-0.01269154623150826,-0.9998546242713928,0,0,0,-1,-1,12951.69544429167,unknown,2,2024-04-18T12:49:14.639+02:00,2024-04-17T14:37:41.930+02:00,4191,1.185061,0,0,3466.396,19,7,2024-04-18T12:07:18.770+02:00,735130154.7025496,0,-54.64,100.937
2024-04-18T12:49:14.755+02:00,12951.81018929167,0.0077056884765625,-0.252197265625,-1.013397216796875,12951.79522229167,-0.005857436390068288,0.02621619869913842,0.002596788451353839,-0.1162659078836441,0.1220486238598824,0.1536078006029129,-0.06242221966385841,-0.3314791023731232,0.14484041929245,XArbitraryZVertical,0.001336665532926739,0.01310385480738502,-0.002911441105268501,0.9999089787471211,0.02621310763061047,-0.002596785547211766,-0.9996529817581177,0,0,0,-1,-1,12951.69544429167,unknown,2,2024-04-18T12:49:14.639+02:00,2024-04-17T14:37:41.930+02:00,4191,1.185061,0,0,3466.396,19,7,2024-04-18T12:07:18.770+02:00,735130154.7025496,0,-54.64,100.937
2024-04-18T12:49:14.790+02:00,12951.84511129167,-0.0080108642578125,-0.2938995361328125,-0.97735595703125,12951.79522229167,-0.005857436390068288,0.02621619869913842,0.002596788451353839,-0.1162659078836441,0.1220486238598824,0.1536078006029129,-0.06242221966385841,-0.3314791023731232,0.14484041929245,XArbitraryZVertical,0.001336665532926739,0.01310385480738502,-0.002911441105268501,0.9999089787471211,0.02621310763061047,-0.002596785547211766,-0.9996529817581177,0,0,0,-1,-1,12951.69544429167,unknown,2,2024-04-18T12:49:14.639+02:00,2024-04-17T14:37:41.930+02:00,4191,1.185061,0,0,3466.396,19,7,2024-04-18T12:07:18.770+02:00,735130154.7025496,0,-54.64,100.937
2024-04-18T12:49:14.825+02:00,12951.880033625,0.043853759765625,-0.197021484375,-1.0791015625,12951.85508929167,0.002248625647578715,0.04323721792843345,-0.01080979635739484,-0.2314267158508301,0.2477791905403137,0.004131943918764591,-0.05123208835721016,-0.3047090768814087,0.02165108919143677,XArbitraryZVertical,-0.005427909398176094,0.02161052067143117,0.001007196824660158,0.9997512056878497,0.04322122037410736,0.01080958545207977,-0.9990070462226868,0,0,0,-1,-1,12951.69544429167,unknown,2,2024-04-18T12:49:14.639+02:00,2024-04-17T14:37:41.930+02:00,4191,1.185061,0,0,3466.396,19,7,2024-04-18T12:07:18.770+02:00,735130154.7025496,0,-54.64,100.937
2024-04-18T12:49:14.860+02:00,12951.914955625,0.0562744140625,-0.1346435546875,-1.114715576171875,12951.85508929167,0.002248625647578715,0.04323721792843345,-0.01080979635739484,-0.2314267158508301,0.2477791905403137,0.004131943918764591,-0.05123208835721016,-0.3047090768814087,0.02165108919143677,XArbitraryZVertical,-0.005427909398176094,0.02161052067143117,0.001007196824660158,0.9997512056878497,0.04322122037410736,0.01080958545207977,-0.9990070462226868,0,0,0,-1,-1,12951.69544429167,unknown,2,2024-04-18T12:49:14.639+02:00,2024-04-17T14:37:41.930+02:00,4191,1.185061,0,0,3466.396,19,7,2024-04-18T12:07:18.770+02:00,735130154.7025496,0,-54.64,100.937
2024-04-18T12:49:14.895+02:00,12951.949877625,0.044158935546875,-0.111328125,-1.044891357421875,12951.914955625,0.001661782216776794,0.04650538193759246,-0.02123931677614873,-0.2168150246143341,-0.01495022885501385,-0.008429006673395634,0.002899304032325745,-0.1740849614143372,-0.08356660604476929,XArbitraryZVertical,-0.01063590210188887,0.02324045561577697,0.000583710901629519,0.9996731424407599,0.04647813364863396,0.02123771980404854,-0.9986935257911682,0,0,0,-1,-1,12951.69544429167,unknown,2,2024-04-18T12:49:14.639+02:00,2024-04-17T14:37:41.930+02:00,4191,1.185061,0,0,3466.396,19,7,2024-04-18T12:07:18.770+02:00,735130154.7025496,0,-54.64,100.937
2024-04-18T12:49:14.929+02:00,12951.984800625,0.0518798828125,-0.0760345458984375,-0.9786529541015625,12951.974822625,0.0001252670703238211,0.05534107638686026,-0.02959372380500411,0.02274204604327679,0.1541391909122467,-0.1230685412883759,-0.01468498259782791,-0.1448695063591003,-0.03259247541427612,XArbitraryZVertical,-0.01479238983612688,0.0276630508371125,-0.0003467671886004091,0.9995078349261043,0.05528861284255981,0.02958940528333187,-0.9980318546295166,0,0,0,-1,-1,12951.69544429167,unknown,2,2024-04-18T12:49:14.639+02:00,2024-04-17T14:37:41.930+02:00,4191,1.185061,0,0,3466.396,19,7,2024-04-18T12:07:18.770+02:00,735130154.7025496,0,-54.64,100.937
2024-04-18T12:49:14.964+02:00,12952.019722625,0.0673828125,-0.017730712890625,-1.006576538085938,12951.974822625,0.0001252670703238211,0.05534107638686026,-0.02959372380500411,0.02274204604327679,0.1541391909122467,-0.1230685412883759,-0.01468498259782791,-0.1448695063591003,-0.03259247541427612,XArbitraryZVertical,-0.01479238983612688,0.0276630508371125,-0.0003467671886004091,0.9995078349261043,0.05528861284255981,0.02958940528333187,-0.9980318546295166,0,0,0,-1,-1,12951.69544429167,unknown,2,2024-04-18T12:49:14.639+02:00,2024-04-17T14:37:41.930+02:00,4191,1.185061,0,0,3466.396,19,7,2024-04-18T12:07:18.770+02:00,735130154.7025496,0,-54.64,100.937
2024-04-18T12:49:14.999+02:00,12952.054644625,0.0793914794921875,0.039306640625,-0.99029541015625,12952.034689625,-0.007705385678677984,0.05566802192917522,-0.02645604565730389,-0.05007597059011459,0.03328313678503036,-0.1092183589935303,0.01025238260626793,-0.03501309454441071,-0.01483786106109619,XArbitraryZVertical,-0.01311520296481068,0.02787871799998437,-0.004218982012614388,0.9995163635597366,0.05561980232596397,0.02645296044647694,-0.998101532459259,0,0,0,-1,-1,12951.69544429167,unknown,2,2024-04-18T12:49:14.639+02:00,2024-04-17T14:37:41.930+02:00,4191,1.185061,0,0,3466.396,19,7,2024-04-18T12:07:18.770+02:00,735130154.7025496,0,-54.64,100.937
2024-04-18T12:49:15.034+02:00,12952.089567625,0.0487060546875,0.001983642578125,-1.002029418945312,12952.034689625,-0.007705385678677984,0.05566802192917522,-0.02645604565730389,-0.05007597059011459,0.03328313678503036,-0.1092183589935303,0.01025238260626793,-0.03501309454441071,-0.01483786106109619,XArbitraryZVertical,-0.01311520296481068,0.02787871799998437,-0.004218982012614388,0.9995163635597366,0.05561980232596397,0.02645296044647694,-0.998101532459259,0,0,0,-1,-1,12951.69544429167,unknown,2,2024-04-18T12:49:14.639+02:00,2024-04-17T14:37:41.930+02:00,4191,1.185061,0,0,3466.396,19,7,2024-04-18T12:07:18.770+02:00,735130154.7025496,0,-54.64,100.937
2024-04-18T12:49:15.069+02:00,12952.124489625,0.084716796875,0.0651397705078125,-1.073822021484375,12952.094555625,-0.0102845376265656,0.05761343644752139,-0.03139225694469389,-0.01370242610573769,-0.00363040529191494,-0.03627144172787666,0.001925557851791382,-0.01924105733633041,-0.01092487573623657,XArbitraryZVertical,-0.01554067083050839,0.02887947946084098,-0.00559154582749337,0.9994465371115144,0.05755319818854332,0.03138710185885429,-0.9978489279747009,0,0,0,-1,-1,12951.69544429167,unknown,2,2024-04-18T12:49:14.639+02:00,2024-04-17T14:37:41.930+02:00,4191,1.185061,0,0,3466.396,19,7,2024-04-18T12:07:18.770+02:00,735130154.7025496,0,-54.64,100.937
2024-04-18T12:49:15.104+02:00,12952.159411625,0.06353759765625,0.020721435546875,-1.025558471679688,12952.154422625,-0.009286697377768653,0.05955066268280255,-0.02991341874870044,-0.01429799757897854,0.1028939038515091,0.0739530622959137,-0.003931600600481033,0.008589014410972595,-0.02118587493896484,XArbitraryZVertical,-0.01481113955995881,0.02983669504666211,-0.005086008153820424,0.9994321614851843,0.05948884785175323,0.02990895695984364,-0.9977807998657227,0,0,0,-1,-1,12951.69544429167,unknown,2,2024-04-18T12:49:14.639+02:00,2024-04-17T14:37:41.930+02:00,4191,1.185061,0,0,3466.396,19,7,2024-04-18T12:07:18.770+02:00,735130154.7025496,0,-54.64,100.937
2024-04-18T12:49:15.139+02:00,12952.194333625,0.04608154296875,0.0107574462890625,-1.04095458984375,12952.154422625,-0.009286697377768653,0.05955066268280255,-0.02991341874870044,-0.01429799757897854,0.1028939038515091,0.0739530622959137,-0.003931600600481033,0.008589014410972595,-0.02118587493896484,XArbitraryZVertical,-0.01481113955995881,0.02983669504666211,-0.005086008153820424,0.9994321614851843,0.05948884785175323,0.02990895695984364,-0.9977807998657227,0,0,0,-1,-1,12951.69544429167,unknown,2,2024-04-18T12:49:14.639+02:00,2024-04-17T14:37:41.930+02:00,4191,1.185061,0,0,3466.396,19,7,2024-04-18T12:07:18.770+02:00,735130154.7025496,0,-54.64,100.937
2024-04-18T12:49:15.174+02:00,12952.229256625,0.0283355712890625,0.0011138916015625,-1.022613525390625,12952.214289625,-0.006505523141713209,0.05494754381060334,-0.02593259482866876,0.1287177503108978,-0.09813902527093887,0.008383186534047127,-0.02099640667438507,-0.03023261949419975,-0.02746444940567017,XArbitraryZVertical,-0.0128716247894676,0.02751001838178568,-0.003607431085321341,0.9995322170640435,0.05490143224596977,0.02592968754470348,-0.9981550574302673,0,0,0,-1,-1,12951.69544429167,unknown,2,2024-04-18T12:49:14.639+02:00,2024-04-17T14:37:41.930+02:00,4191,1.185061,0,0,3466.396,19,7,2024-04-18T12:07:18.770+02:00,735130154.7025496,0,-54.64,100.937
2024-04-18T12:49:15.209+02:00,12952.264178625,0.0399169921875,0.0230255126953125,-1.040557861328125,12952.214289625,-0.006505523141713209,0.05494754381060334,-0.02593259482866876,0.1287177503108978,-0.09813902527093887,0.008383186534047127,-0.02099640667438507,-0.03023261949419975,-0.02746444940567017,XArbitraryZVertical,-0.0128716247894676,0.02751001838178568,-0.003607431085321341,0.9995322170640435,0.05490143224596977,0.02592968754470348,-0.9981550574302673,0,0,0,-1,-1,12951.69544429167,unknown,2,2024-04-18T12:49:14.639+02:00,2024-04-17T14:37:41.930+02:00,4191,1.185061,0,0,3466.396,19,7,2024-04-18T12:07:18.770+02:00,735130154.7025496,0,-54.64,100.937
2024-04-18T12:49:15.244+02:00,12952.299100625,0.0413818359375,-0.0095977783203125,-1.002304077148438,12952.274156625,-0.006406190602402967,0.05093908743457838,-0.02004596973608771,0.05338260158896446,0.02898392081260681,0.03782287240028381,-0.01098984479904175,0.002980932593345642,-0.04205560684204102,XArbitraryZVertical,-0.009937946647032464,0.02549747395475976,-0.003457137804178008,0.9996195068286974,0.05090682953596115,0.02004462666809559,-0.998502254486084,0,0,0,-1,-1,12951.69544429167,unknown,2,2024-04-18T12:49:14.639+02:00,2024-04-17T14:37:41.930+02:00,4191,1.185061,0,0,3466.396,19,7,2024-04-18T12:07:18.770+02:00,735130154.7025496,0,-54.64,100.937
2024-04-18T12:49:15.279+02:00,12952.334023625,0.05535888671875,-0.01043701171875,-0.9712982177734375,12952.274156625,-0.006406190602402967,0.05093908743457838,-0.02004596973608771,0.05338260158896446,0.02898392081260681,0.03782287240028381,-0.01098984479904175,0.002980932593345642,-0.04205560684204102,XArbitraryZVertical,-0.009937946647032464,0.02549747395475976,-0.003457137804178008,0.9996195068286974,0.05090682953596115,0.02004462666809559,-0.998502254486084,0,0,0,-1,-1,12951.69544429167,unknown,2,2024-04-18T12:49:14.639+02:00,2024-04-17T14:37:41.930+02:00,4191,1.185061,0,0,3466.396,19,7,2024-04-18T12:07:18.770+02:00,735130154.7025496,0,-54.64,100.937
2024-04-18T12:49:15.314+02:00,12952.368945625,0.0686492919921875,-0.0102386474609375,-1.01190185546875,12952.334023625,-0.00494349911553658,0.05073819043357357,-0.01733480948534361,0.07637486606836319,-0.0634763315320015,0.01653363741934299,-0.00151447206735611,-0.02976980805397034,0.02628827095031738,XArbitraryZVertical,-0.008601783744301327,0.02538675979367673,-0.002690716021995925,0.99963709357068,0.05070880427956581,0.01733394153416157,-0.9985630512237549,0,0,0,-1,-1,12951.69544429167,unknown,2,2024-04-18T12:49:14.639+02:00,2024-04-17T14:37:41.930+02:00,4191,1.185061,0,0,3466.396,19,7,2024-04-18T12:07:18.770+02:00,735130154.7025496,0,-54.64,100.937
2024-04-18T12:49:15.349+02:00,12952.403867625,0.12725830078125,0.02557373046875,-1.035110473632812,12952.393890625,-0.007044105907865243,0.04351488906516963,-0.01150873995384395,0.1141520366072655,-0.09078390896320343,-0.02553137205541134,0.05470728129148483,0.006741071119904518,-0.02622026205062866,XArbitraryZVertical,-0.005676317104820934,0.02177549477896725,-0.003646342750128123,0.9997401354935018,0.04349827766418457,0.01150848623365164,-0.9989871978759766,0,0,0,-1,-1,12951.69544429167,unknown,2,2024-04-18T12:49:14.639+02:00,2024-04-17T14:37:41.930+02:00,4191,1.185061,0,0,3466.396,19,7,2024-04-18T12:07:18.770+02:00,735130154.7025496,0,-54.64,100.937
2024-04-18T12:49:15.383+02:00,12952.438790625,0.167022705078125,0.001129150390625,-1.04876708984375,12952.393890625,-0.007044105907865243,0.04351488906516963,-0.01150873995384395,0.1141520366072655,-0.09078390896320343,-0.02553137205541134,0.05470728129148483,0.006741071119904518,-0.02622026205062866,XArbitraryZVertical,-0.005676317104820934,0.02177549477896725,-0.003646342750128123,0.9997401354935018,0.04349827766418457,0.01150848623365164,-0.9989871978759766,0,0,0,-1,-1,12951.69544429167,unknown,2,2024-04-18T12:49:14.639+02:00,2024-04-17T14:37:41.930+02:00,4191,1.185061,0,0,3466.396,19,7,2024-04-18T12:07:18.770+02:00,735130154.7025496,0,-54.64,100.937
2024-04-18T12:49:15.418+02:00,12952.473712625,0.2226409912109375,-0.01239013671875,-1.054214477539062,12952.453756625,-0.002730366107939669,0.04137288037949972,-0.01211396015281399,-0.05611788481473923,-0.02403862774372101,0.1268639117479324,0.1292504668235779,-0.01489071827381849,-0.04598820209503174,XArbitraryZVertical,-0.00602740320804335,0.02069283308790651,-0.001490153031557739,0.99976660593163,0.04135804250836372,0.01211366429924965,-0.999070942401886,0,0,0,-1,-1,12951.69544429167,unknown,2,2024-04-18T12:49:14.639+02:00,2024-04-17T14:37:41.930+02:00,4191,1.185061,0,0,3466.396,19,7,2024-04-18T12:07:18.770+02:00,735130154.7025496,0,-54.64,100.937
2024-04-18T12:49:15.460+02:00,12952.508634625,0.253021240234375,0.026214599609375,-1.018539428710938,12952.453756625,-0.002730366107939669,0.04137288037949972,-0.01211396015281399,-0.05611788481473923,-0.02403862774372101,0.1268639117479324,0.1292504668235779,-0.01489071827381849,-0.04598820209503174,XArbitraryZVertical,-0.00602740320804335,0.02069283308790651,-0.001490153031557739,0.99976660593163,0.04135804250836372,0.01211366429924965,-0.999070942401886,0,0,0,-1,-1,12951.69544429167,unknown,2,2024-04-18T12:49:14.639+02:00,2024-04-17T14:37:41.930+02:00,4191,1.185061,0,0,3466.396,19,7,2024-04-18T12:07:18.770+02:00,735130154.7025496,0,-54.64,100.937
2024-04-18T12:49:15.489+02:00,12952.543557625,0.251495361328125,-0.003173828125,-0.9442138671875,12952.513623625,0.00729278552738971,0.04519115631248322,-0.01246456194843772,0.05421279743313789,0.1546716541051865,0.2271589338779449,0.2002500891685486,0.0100730387493968,-0.02056872844696045,XArbitraryZVertical,-0.006312991527112843,0.02257034595836969,0.003504574745695578,0.9997192349737783,0.04517226666212082,0.01246423926204443,-0.9989014267921448,0,0,0,-1,-1,12951.69544429167,unknown,2,2024-04-18T12:49:14.639+02:00,2024-04-17T14:37:41.930+02:00,4191,1.185061,0,0,3466.396,19,7,2024-04-18T12:07:18.770+02:00,735130154.7025496,0,-54.64,100.937
2024-04-18T12:49:15.523+02:00,12952.578479625,0.197418212890625,-0.06353759765625,-0.92767333984375,12952.573490625,0.02375342159163251,0.05387547504186643,-0.01766566518188902,-0.23441281914711,0.1140428334474564,0.1995016634464264,0.1867595613002777,-0.05192068219184875,0.03965306282043457,XArbitraryZVertical,-0.00914876378137776,0.02682666708632519,0.01163377209886811,0.9995305080459899,0.05384101346135139,0.01766474545001984,-0.9983932375907898,0,0,0,-1,-1,12951.69544429167,unknown,2,2024-04-18T12:49:14.639+02:00,2024-04-17T14:37:41.930+02:00,4191,1.185061,0,0,3466.396,19,7,2024-04-18T12:07:18.770+02:00,735130154.7025496,0,-54.64,100.937
2024-04-18T12:49:15.558+02:00,12952.613401625,0.2585296630859375,0.036163330078125,-0.944610595703125,12952.573490625,0.02375342159163251,0.05387547504186643,-0.01766566518188902,-0.23441281914711,0.1140428334474564,0.1995016634464264,0.1867595613002777,-0.05192068219184875,0.03965306282043457,XArbitraryZVertical,-0.00914876378137776,0.02682666708632519,0.01163377209886811,0.9995305080459899,0.05384101346135139,0.01766474545001984,-0.9983932375907898,0,0,0,-1,-1,12951.69544429167,unknown,2,2024-04-18T12:49:14.639+02:00,2024-04-17T14:37:41.930+02:00,4191,1.185061,0,0,3466.396,19,7,2024-04-18T12:07:18.770+02:00,735130154.7025496,0,-54.64,100.937
2024-04-18T12:49:15.593+02:00,12952.648324625,0.1363525390625,0.046600341796875,-0.982574462890625,12952.633357625,0.03459995057759961,0.05915688588092851,-0.02384421565744814,-0.01576149463653564,-0.07599218189716339,0.322941392660141,0.2170327305793762,0.07688135653734207,-0.07100272178649902,XArbitraryZVertical,-0.01242639737281529,0.0293614565945925,0.01693779190292514,0.9993480827692767,0.05910558253526688,0.02384195663034916,-0.997967004776001,0,0,0,-1,-1,12951.69544429167,unknown,2,2024-04-18T12:49:14.639+02:00,2024-04-17T14:37:41.930+02:00,4191,1.185061,0,0,3466.396,19,7,2024-04-18T12:07:18.770+02:00,735130154.7025496,0,-54.64,100.937
2024-04-18T12:49:15.628+02:00,12952.683246625,0.0358734130859375,-0.0230255126953125,-0.8977203369140625,12952.633357625,0.03459995057759961,0.05915688588092851,-0.02384421565744814,-0.01576149463653564,-0.07599218189716339,0.322941392660141,0.2170327305793762,0.07688135653734207,-0.07100272178649902,XArbitraryZVertical,-0.01242639737281529,0.0293614565945925,0.01693779190292514,0.9993480827692767,0.05910558253526688,0.02384195663034916,-0.997967004776001,0,0,0,-1,-1,12951.69544429167,unknown,2,2024-04-18T12:49:14.639+02:00,2024-04-17T14:37:41.930+02:00,4191,1.185061,0,0,3466.396,19,7,2024-04-18T12:07:18.770+02:00,735130154.7025496,0,-54.64,100.937
2024-04-18T12:49:15.663+02:00,12952.718168625,0.0366058349609375,0.0523529052734375,-1.021682739257812,12952.693224625,0.05443103213169167,0.05898247137357847,-0.02662733193533051,-0.3132635653018951,0.03297740593552589,0.2261340767145157,-0.02305397018790245,-0.04964965209364891,0.1001868844032288,XArbitraryZVertical,-0.01410488798062955,0.0291113032345692,0.02680549005455284,0.9991171519928536,0.05892738327383995,0.02662418596446514,-0.9979071617126465,0,0,0,-1,-1,12951.69544429167,unknown,2,2024-04-18T12:49:14.639+02:00,2024-04-17T14:37:41.930+02:00,4191,1.185061,0,0,3466.396,19,7,2024-04-18T12:07:18.770+02:00,735130154.7025496,0,-54.64,100.937
2024-04-18T12:49:15.698+02:00,12952.753091625,-0.1309661865234375,0.0396270751953125,-1.135528564453125,12952.693224625,0.05443103213169167,0.05898247137357847,-0.02662733193533051,-0.3132635653018951,0.03297740593552589,0.2261340767145157,-0.02305397018790245,-0.04964965209364891,0.1001868844032288,XArbitraryZVertical,-0.01410488798062955,0.0291113032345692,0.02680549005455284,0.9991171519928536,0.05892738327383995,0.02662418596446514,-0.9979071617126465,0,0,0,-1,-1,12951.69544429167,unknown,2,2024-04-18T12:49:14.639+02:00,2024-04-17T14:37:41.930+02:00,4191,1.185061,0,0,3466.396,19,7,2024-04-18T12:07:18.770+02:00,735130154.7025496,0,-54.64,100.937
2024-04-18T12:49:15.733+02:00,12952.788013625,-0.191650390625,0.0662078857421875,-1.062881469726562,12952.753091625,0.06860487242053515,0.05322196895018138,-0.04142223455376703,-0.05753965303301811,-0.1386255919933319,0.2246596068143845,-0.1417132318019867,-0.02250470221042633,-0.166380763053894,XArbitraryZVertical,-0.02160246414373993,0.02587648698486847,0.03372549864517514,0.9988625544633775,0.0531512163579464,0.04141039028763771,-0.9977274537086487,0,0,0,-1,-1,12951.69544429167,unknown,2,2024-04-18T12:49:14.639+02:00,2024-04-17T14:37:41.930+02:00,4191,1.185061,0,0,3466.396,19,7,2024-04-18T12:07:18.770+02:00,735130154.7025496,0,-54.64,100.937
2024-04-18T12:49:15.768+02:00,12952.822935625,-0.2545166015625,-0.004180908203125,-0.98919677734375,12952.812957625,0.08341246114631981,0.04943439526731615,-0.03267519161791214,0.3007932901382446,-0.08588875830173492,0.2814549207687378,-0.2639874815940857,0.008987162262201309,0.0168304443359375,XArbitraryZVertical,-0.01734799527578111,0.02400894860461081,0.04127242992898663,0.9987088507481007,0.04938788712024689,0.03266937658190727,-0.9982452392578125,0,0,0,-1,-1,12951.69544429167,unknown,2,2024-04-18T12:49:14.639+02:00,2024-04-17T14:37:41.930+02:00,4191,1.185061,0,0,3466.396,19,7,2024-04-18T12:07:18.770+02:00,735130154.7025496,0,-54.64,100.937
2024-04-18T12:49:15.803+02:00,12952.857858625,-0.3011016845703125,-0.0628814697265625,-1.032073974609375,12952.812957625,0.08341246114631981,0.04943439526731615,-0.03267519161791214,0.3007932901382446,-0.08588875830173492,0.2814549207687378,-0.2639874815940857,0.008987162262201309,0.0168304443359375,XArbitraryZVertical,-0.01734799527578111,0.02400894860461081,0.04127242992898663,0.9987088507481007,0.04938788712024689,0.03266937658190727,-0.9982452392578125,0,0,0,-1,-1,12951.69544429167,unknown,2,2024-04-18T12:49:14.639+02:00,2024-04-17T14:37:41.930+02:00,4191,1.185061,0,0,3466.396,19,7,2024-04-18T12:07:18.770+02:00,735130154.7025496,0,-54.64,100.937
2024-04-18T12:49:15.838+02:00,12952.892781125,-0.2892913818359375,-0.0033721923828125,-0.9725494384765625,12952.872825125,0.09412062935236454,0.04249809095277818,-0.0208414415921228,0.0529276430606842,-0.1148879155516624,0.02649560943245888,-0.3421434462070465,-0.0902368575334549,-0.03601670265197754,XArbitraryZVertical,-0.01140613281740991,0.02073266727525989,0.04680860495908815,0.9986236199795121,0.04247607290744781,0.02083993330597878,-0.9988800883293152,0,0,0,-1,-1,12951.69544429167,unknown,2,2024-04-18T12:49:14.639+02:00,2024-04-17T14:37:41.930+02:00,4191,1.185061,0,0,3466.396,19,7,2024-04-18T12:07:18.770+02:00,735130154.7025496,0,-54.64,100.937
2024-04-18T12:49:15.873+02:00,12952.927703125,-0.2811737060546875,0.0207672119140625,-1.056472778320312,12952.872825125,0.09412062935236454,0.04249809095277818,-0.0208414415921228,0.0529276430606842,-0.1148879155516624,0.02649560943245888,-0.3421434462070465,-0.0902368575334549,-0.03601670265197754,XArbitraryZVertical,-0.01140613281740991,0.02073266727525989,0.04680860495908815,0.9986236199795121,0.04247607290744781,0.02083993330597878,-0.9988800883293152,0,0,0,-1,-1,12951.69544429167,unknown,2,2024-04-18T12:49:14.639+02:00,2024-04-17T14:37:41.930+02:00,4191,1.185061,0,0,3466.396,19,7,2024-04-18T12:07:18.770+02:00,735130154.7025496,0,-54.64,100.937
2024-04-18T12:49:15.907+02:00,12952.962626125,-0.2615509033203125,0.0505828857421875,-1.157562255859375,12952.932692125,0.08995976823695678,0.03521980606727806,-0.01873057388456319,0.06908481568098068,-0.0592925064265728,-0.1454368978738785,-0.3350873291492462,0.002541318535804749,-0.02987867593765259,XArbitraryZVertical,-0.01014597556442629,0.01716937464904724,0.04479102948930223,0.9987973303262895,0.03520634770393372,0.01872947812080383,-0.9992045164108276,0,0,0,-1,-1,12951.69544429167,unknown,2,2024-04-18T12:49:14.639+02:00,2024-04-17T14:37:41.930+02:00,4191,1.185061,0,0,3466.396,19,7,2024-04-18T12:07:18.770+02:00,735130154.7025496,0,-54.64,100.937
2024-04-18T12:49:15.960+02:00,12952.997548125,-0.2275848388671875,0.0174407958984375,-1.061965942382812,12952.992559125,0.07727779093312603,0.03534585244609361,-0.01188236207400392,0.06125006824731827,0.1164323389530182,-0.2861923575401306,-0.2681851387023926,0.02983549237251282,-0.1113671064376831,XArbitraryZVertical,-0.006618428896283253,0.01742903687186175,0.0385176514261088,0.9990840578812274,0.03533599898219109,0.01188208255916834,-0.9993048310279846,0,0,0,-1,-1,12951.69544429167,unknown,2,2024-04-18T12:49:14.639+02:00,2024-04-17T14:37:41.930+02:00,4191,1.185061,0,0,3466.396,19,7,2024-04-18T12:07:18.770+02:00,735130154.7025496,0,-54.64,100.937
2024-04-18T12:49:15.977+02:00,12953.032470125,-0.312744140625,-0.064910888671875,-1.081298828125,12952.992559125,0.07727779093312603,0.03534585244609361,-0.01188236207400392,0.06125006824731827,0.1164323389530182,-0.2861923575401306,-0.2681851387023926,0.02983549237251282,-0.1113671064376831,XArbitraryZVertical,-0.006618428896283253,0.01742903687186175,0.0385176514261088,0.9990840578812274,0.03533599898219109,0.01188208255916834,-0.9993048310279846,0,0,0,-1,-1,12951.69544429167,unknown,2,2024-04-18T12:49:14.639+02:00,2024-04-17T14:37:41.930+02:00,4191,1.185061,0,0,3466.396,19,7,2024-04-18T12:07:18.770+02:00,735130154.7025496,0,-54.64,100.937
2024-04-18T12:49:16.012+02:00,12953.067392125,-0.3069000244140625,-0.03424072265625,-1.089324951171875,12953.052426125,0.04987287878139911,0.02544026026418421,-0.002683613782169752,0.1582656055688858,-0.2979669868946075,-0.715195894241333,-0.3548136353492737,-0.09884445369243622,-0.08277040719985962,XArbitraryZVertical,-0.001658433860742129,0.01268236747757979,0.02491475345556002,0.9996077496351508,0.02543742395937443,0.002683610655367374,-0.9996728301048279,0,0,0,-1,-1,12951.69544429167,unknown,2,2024-04-18T12:49:14.639+02:00,2024-04-17T14:37:41.930+02:00,4191,1.185061,0,0,3466.396,19,7,2024-04-18T12:07:18.770+02:00,735130154.7025496,0,-54.64,100.937
2024-04-18T12:49:16.047+02:00,12953.102315125,-0.1542510986328125,0.105438232421875,-1.003753662109375,12953.052426125,0.04987287878139911,0.02544026026418421,-0.002683613782169752,0.1582656055688858,-0.2979669868946075,-0.715195894241333,-0.3548136353492737,-0.09884445369243622,-0.08277040719985962,XArbitraryZVertical,-0.001658433860742129,0.01268236747757979,0.02491475345556002,0.9996077496351508,0.02543742395937443,0.002683610655367374,-0.9996728301048279,0,0,0,-1,-1,12951.69544429167,unknown,2,2024-04-18T12:49:14.639+02:00,2024-04-17T14:37:41.930+02:00,4191,1.185061,0,0,3466.396,19,7,2024-04-18T12:07:18.770+02:00,735130154.7025496,0,-54.64,100.937
2024-04-18T12:49:16.082+02:00,12953.137237125,-0.0567169189453125,0.1062164306640625,-0.9907684326171875,12953.112293125,-0.002701488132476634,0.01857145259233109,0.01102192589465304,0.2997249364852905,-0.1090865060687065,-0.9014538526535034,-0.1728203594684601,0.1164599806070328,-0.003986835479736328,XArbitraryZVertical,0.005523234493950318,0.009277999490563925,-0.001299492614160744,0.9999408977869526,0.01856925711035728,-0.01102170255035162,-0.9997668266296387,0,0,0,-1,-1,12951.69544429167,unknown,2,2024-04-18T12:49:14.639+02:00,2024-04-17T14:37:41.930+02:00,4191,1.185061,0,0,3466.396,19,7,2024-04-18T12:07:18.770+02:00,735130154.7025496,0,-54.64,100.937
2024-04-18T12:49:16.117+02:00,12953.172159125,-0.016326904296875,-0.035858154296875,-0.8590850830078125,12953.112293125,-0.002701488132476634,0.01857145259233109,0.01102192589465304,0.2997249364852905,-0.1090865060687065,-0.9014538526535034,-0.1728203594684601,0.1164599806070328,-0.003986835479736328,XArbitraryZVertical,0.005523234493950318,0.009277999490563925,-0.001299492614160744,0.9999408977869526,0.01856925711035728,-0.01102170255035162,-0.9997668266296387,0,0,0,-1,-1,12951.69544429167,unknown,2,2024-04-18T12:49:14.639+02:00,2024-04-17T14:37:41.930+02:00,4191,1.185061,0,0,3466.396,19,7,2024-04-18T12:07:18.770+02:00,735130154.7025496,0,-54.64,100.937
2024-04-18T12:49:16.152+02:00,12953.207082125,-0.0101165771484375,-0.0222015380859375,-0.911834716796875,12953.172159125,-0.05095374855444382,0.004662832425945744,0.02509707723917765,0.2446964979171753,-0.479255884885788,-0.8111891746520996,-0.02335337176918983,0.07285449653863907,0.1039222478866577,XArbitraryZVertical,0.01260348923848336,0.002010820330689011,-0.02544279811119555,0.9995947953595413,0.00466134725138545,-0.02509444206953049,-0.9996742010116577,0,0,0,-1,-1,12951.69544429167,unknown,2,2024-04-18T12:49:14.639+02:00,2024-04-17T14:37:41.930+02:00,4191,1.185061,0,0,3466.396,19,7,2024-04-18T12:07:18.770+02:00,735130154.7025496,0,-54.64,100.937
2024-04-18T12:49:16.187+02:00,12953.242004125,0.056427001953125,-0.045562744140625,-0.8717498779296875,12953.232026125,-0.1069560889170253,-0.03361571019617631,0.03957659797994273,0.2908951640129089,-0.687903881072998,-0.9817737340927124,0.08642423152923584,0.04022243618965149,0.02535533905029297,XArbitraryZVertical,0.01885772356828515,-0.01783726625571901,-0.05376662776315411,0.9982161374025288,-0.03358305990695953,-0.03956626728177071,-0.998652458190918,0,0,0,-1,-1,12951.69544429167,unknown,2,2024-04-18T12:49:14.639+02:00,2024-04-17T14:37:41.930+02:00,4191,1.185061,0,0,3466.396,19,7,2024-04-18T12:07:18.770+02:00,735130154.7025496,0,-54.64,100.937
2024-04-18T12:49:16.222+02:00,12953.276926125,0.1279144287109375,-0.0023040771484375,-0.9527740478515625,12953.232026125,-0.1069560889170253,-0.03361571019617631,0.03957659797994273,0.2908951640129089,-0.687903881072998,-0.9817737340927124,0.08642423152923584,0.04022243618965149,0.02535533905029297,XArbitraryZVertical,0.01885772356828515,-0.01783726625571901,-0.05376662776315411,0.9982161374025288,-0.03358305990695953,-0.03956626728177071,-0.998652458190918,0,0,0,-1,-1,12951.69544429167,unknown,2,2024-04-18T12:49:14.639+02:00,2024-04-17T14:37:41.930+02:00,4191,1.185061,0,0,3466.396,19,7,2024-04-18T12:07:18.770+02:00,735130154.7025496,0,-54.64,100.937
2024-04-18T12:49:16.257+02:00,12953.311849125,0.1962432861328125,-0.053070068359375,-0.933746337890625,12953.291893125,-0.1643158220418317,-0.07488617554041853,0.04766913616878874,-0.04094105958938599,-0.6043180227279663,-0.8156315684318542,0.2153256833553314,0.04978736117482185,0.03285354375839233,XArbitraryZVertical,0.0206640787657574,-0.0392519112466707,-0.08287383378964859,0.99557237665853,-0.07473121583461761,-0.04765108600258827,-0.9960645437240601,0,0,0,-1,-1,12951.69544429167,unknown,2,2024-04-18T12:49:14.639+02:00,2024-04-17T14:37:41.930+02:00,4191,1.185061,0,0,3466.396,19,7,2024-04-18T12:07:18.770+02:00,735130154.7025496,0,-54.64,100.937
2024-04-18T12:49:16.291+02:00,12953.346771125,0.2360076904296875,-0.0360107421875,-0.9665679931640625,12953.291893125,-0.1643158220418317,-0.07488617554041853,0.04766913616878874,-0.04094105958938599,-0.6043180227279663,-0.8156315684318542,0.2153256833553314,0.04978736117482185,0.03285354375839233,XArbitraryZVertical,0.0206640787657574,-0.0392519112466707,-0.08287383378964859,0.99557237665853,-0.07473121583461761,-0.04765108600258827,-0.9960645437240601,0,0,0,-1,-1,12951.69544429167,unknown,2,2024-04-18T12:49:14.639+02:00,2024-04-17T14:37:41.930+02:00,4191,1.185061,0,0,3466.396,19,7,2024-04-18T12:07:18.770+02:00,735130154.7025496,0,-54.64,100.937
2024-04-18T12:49:16.326+02:00,12953.381693125,0.3107757568359375,0.0211944580078125,-1.132095336914062,12953.351760125,-0.2058380384622254,-0.09754089264783594,0.03578846437819048,-0.3518608212471008,-0.2470148503780365,-0.5539548397064209,0.3282504081726074,0.005736310034990311,0.02913999557495117,XArbitraryZVertical,0.01276966989461806,-0.05032151035708848,-0.1034665408499541,0.993277043729351,-0.09732393175363541,-0.03578082472085953,-0.9946093559265137,0,0,0,-1,-1,12951.69544429167,unknown,2,2024-04-18T12:49:14.639+02:00,2024-04-17T14:37:41.930+02:00,4191,1.185061,0,0,3466.396,19,7,2024-04-18T12:07:18.770+02:00,735130154.7025496,0,-54.64,100.937
2024-04-18T12:49:16.361+02:00,12953.416616125,0.320892333984375,-0.0028533935546875,-1.147262573242188,12953.411627125,-0.2257080160205098,-0.111975159861484,0.03022135776470164,-0.01039322651922703,-0.2041917592287064,-0.04754144325852394,0.4196278750896454,0.03845654428005219,-0.1084315180778503,XArbitraryZVertical,0.008689453114180977,-0.05729496805435021,-0.1132654638894502,0.9918734315075791,-0.1116902828216553,-0.0302167572081089,-0.9932835698127747,0,0,0,-1,-1,12951.69544429167,unknown,2,2024-04-18T12:49:14.639+02:00,2024-04-17T14:37:41.930+02:00,4191,1.185061,0,0,3466.396,19,7,2024-04-18T12:07:18.770+02:00,735130154.7025496,0,-54.64,100.937
2024-04-18T12:49:16.396+02:00,12953.451538125,0.24066162109375,-0.07232666015625,-1.055496215820312,12953.411627125,-0.2257080160205098,-0.111975159861484,0.03022135776470164,-0.01039322651922703,-0.2041917592287064,-0.04754144325852394,0.4196278750896454,0.03845654428005219,-0.1084315180778503,XArbitraryZVertical,0.008689453114180977,-0.05729496805435021,-0.1132654638894502,0.9918734315075791,-0.1116902828216553,-0.0302167572081089,-0.9932835698127747,0,0,0,-1,-1,12951.69544429167,unknown,2,2024-04-18T12:49:14.639+02:00,2024-04-17T14:37:41.930+02:00,4191,1.185061,0,0,3466.396,19,7,2024-04-18T12:07:18.770+02:00,735130154.7025496,0,-54.64,100.937
2024-04-18T12:49:16.431+02:00,12953.486460125,0.208343505859375,-0.0644989013671875,-1.15777587890625,12953.471493125,-0.2146681503063443,-0.1208251617873658,0.02739853927947622,0.1177253276109695,-0.07040253281593323,0.3363204896450043,0.3500393629074097,-0.05469713360071182,-0.0842621922492981,XArbitraryZVertical,0.00712781898229787,-0.06148760599858655,-0.1077449455851744,0.9922498029155961,-0.1204861551523209,-0.02739511057734489,-0.9923369288444519,0,0,0,-1,-1,12951.69544429167,unknown,2,2024-04-18T12:49:14.639+02:00,2024-04-17T14:37:41.930+02:00,4191,1.185061,0,0,3466.396,19,7,2024-04-18T12:07:18.770+02:00,735130154.7025496,0,-54.64,100.937
2024-04-18T12:49:16.467+02:00,12953.521382125,0.179595947265625,-0.0623321533203125,-1.136337280273438,12953.471493125,-0.2146681503063443,-0.1208251617873658,0.02739853927947622,0.1177253276109695,-0.07040253281593323,0.3363204896450043,0.3500393629074097,-0.05469713360071182,-0.0842621922492981,XArbitraryZVertical,0.00712781898229787,-0.06148760599858655,-0.1077449455851744,0.9922498029155961,-0.1204861551523209,-0.02739511057734489,-0.9923369288444519,0,0,0,-1,-1,12951.69544429167,unknown,2,2024-04-18T12:49:14.639+02:00,2024-04-17T14:37:41.930+02:00,4191,1.185061,0,0,3466.396,19,7,2024-04-18T12:07:18.770+02:00,735130154.7025496,0,-54.64,100.937
2024-04-18T12:49:16.501+02:00,12953.556305125,0.170379638671875,-0.03839111328125,-1.107025146484375,12953.531360125,-0.1851582114733803,-0.1101665268464186,0.03647122261845653,0.2002158910036087,0.443772941827774,0.6002930998802185,0.2894666194915771,-0.0258689746260643,-0.1430604457855225,XArbitraryZVertical,0.01304011823325258,-0.05649370333169813,-0.09329096479048407,0.9939493319417033,-0.1098707094788551,-0.03646313771605492,-0.993276834487915,0,0,0,-1,-1,12951.69544429167,unknown,2,2024-04-18T12:49:14.639+02:00,2024-04-17T14:37:41.930+02:00,4191,1.185061,0,0,3466.396,19,7,2024-04-18T12:07:18.770+02:00,735130154.7025496,0,-54.64,100.937
2024-04-18T12:49:16.536+02:00,12953.591227125,0.185638427734375,-0.0290679931640625,-1.01055908203125,12953.531360125,-0.1851582114733803,-0.1101665268464186,0.03647122261845653,0.2002158910036087,0.443772941827774,0.6002930998802185,0.2894666194915771,-0.0258689746260643,-0.1430604457855225,XArbitraryZVertical,0.01304011823325258,-0.05649370333169813,-0.09329096479048407,0.9939493319417033,-0.1098707094788551,-0.03646313771605492,-0.993276834487915,0,0,0,-1,-1,12951.69544429167,unknown,2,2024-04-18T12:49:14.639+02:00,2024-04-17T14:37:41.930+02:00,4191,1.185061,0,0,3466.396,19,7,2024-04-18T12:07:18.770+02:00,735130154.7025496,0,-54.64,100.937
2024-04-18T12:49:16.571+02:00,12953.626149125,0.2105712890625,0.0142669677734375,-0.91424560546875,12953.591227125,-0.1390206539083212,-0.07465145304714732,0.04449222977762261,0.1251377016305923,0.7958595156669617,0.8696145415306091,0.2433620691299438,0.01118291541934013,-0.03998106718063354,XArbitraryZVertical,0.01958391540830693,-0.03876161943046724,-0.0702169020466475,0.9965859631535775,-0.07450832426548004,-0.04447755217552185,-0.996228039264679,0,0,0,-1,-1,12951.69544429167,unknown,2,2024-04-18T12:49:14.639+02:00,2024-04-17T14:37:41.930+02:00,4191,1.185061,0,0,3466.396,19,7,2024-04-18T12:07:18.770+02:00,735130154.7025496,0,-54.64,100.937
2024-04-18T12:49:16.606+02:00,12953.661072125,0.177947998046875,0.0103607177734375,-1.007369995117188,12953.651094125,-0.08060415514338755,-0.02726796039232768,0.03781256469856819,-0.07212237268686295,0.6858651638031006,1.067418336868286,0.2286305725574493,0.08370203524827957,0.09791272878646851,XArbitraryZVertical,0.01833883578005267,-0.01438169302984594,-0.04053775998664309,0.9989061429575236,-0.02724509313702583,-0.03780355304479599,-0.9989137053489685,0,0,0,-1,-1,12951.69544429167,unknown,2,2024-04-18T12:49:14.639+02:00,2024-04-17T14:37:41.930+02:00,4191,1.185061,0,0,3466.396,19,7,2024-04-18T12:07:18.770+02:00,735130154.7025496,0,-54.64,100.937
2024-04-18T12:49:16.641+02:00,12953.695994125,0.1746826171875,0.05712890625,-1.104095458984375,12953.651094125,-0.08060415514338755,-0.02726796039232768,0.03781256469856819,-0.07212237268686295,0.6858651638031006,1.067418336868286,0.2286305725574493,0.08370203524827957,0.09791272878646851,XArbitraryZVertical,0.01833883578005267,-0.01438169302984594,-0.04053775998664309,0.9989061429575236,-0.02724509313702583,-0.03780355304479599,-0.9989137053489685,0,0,0,-1,-1,12951.69544429167,unknown,2,2024-04-18T12:49:14.639+02:00,2024-04-17T14:37:41.930+02:00,4191,1.185061,0,0,3466.396,19,7,2024-04-18T12:07:18.770+02:00,735130154.7025496,0,-54.64,100.937
2024-04-18T12:49:16.676+02:00,12953.730916125,0.065338134765625,0.040924072265625,-0.9683380126953125,12953.710961125,-0.01795784622429344,0.01845480585153599,0.02645491986129208,-0.310061514377594,1.09079921245575,1.04706609249115,0.1471258103847504,0.08228378742933273,-0.08741891384124756,XArbitraryZVertical,0.01330881928982153,0.009107333788446345,-0.008855589077926758,0.9998308339254063,0.01844730041921139,-0.02645183354616165,-0.9994798898696899,0,0,0,-1,-1,12951.69544429167,unknown,2,2024-04-18T12:49:14.639+02:00,2024-04-17T14:37:41.930+02:00,4191,1.185061,0,0,3466.396,19,7,2024-04-18T12:07:18.770+02:00,735130154.7025496,0,-54.64,100.937
2024-04-18T12:49:16.711+02:00,12953.765838125,-0.0186309814453125,-0.05615234375,-1.049819946289062,12953.710961125,-0.01795784622429344,0.01845480585153599,0.02645491986129208,-0.310061514377594,1.09079921245575,1.04706609249115,0.1471258103847504,0.08228378742933273,-0.08741891384124756,XArbitraryZVertical,0.01330881928982153,0.009107333788446345,-0.008855589077926758,0.9998308339254063,0.01844730041921139,-0.02645183354616165,-0.9994798898696899,0,0,0,-1,-1,12951.69544429167,unknown,2,2024-04-18T12:49:14.639+02:00,2024-04-17T14:37:41.930+02:00,4191,1.185061,0,0,3466.396,19,7,2024-04-18T12:07:18.770+02:00,735130154.7025496,0,-54.64,100.937
2024-04-18T12:49:16.746+02:00,12953.800761125,-0.13494873046875,0.00201416015625,-1.028366088867188,12953.770827125,0.04136623640997035,0.06675445947038763,0.01539886748343213,-0.2881433069705963,0.5147967934608459,0.7695026397705078,-0.08216939866542816,-0.0491311140358448,-0.0204576849937439,XArbitraryZVertical,0.00700327590868623,0.03352205151515314,0.02092639154767856,0.9991943731597982,0.06669698655605316,-0.01539825927466154,-0.9976544380187988,0,0,0,-1,-1,12951.69544429167,unknown,2,2024-04-18T12:49:14.639+02:00,2024-04-17T14:37:41.930+02:00,4191,1.185061,0,0,3466.396,19,7,2024-04-18T12:07:18.770+02:00,735130154.7025496,0,-54.64,100.937
2024-04-18T12:49:16.780+02:00,12953.835683125,-0.18511962890625,-0.074737548828125,-0.9747314453125,12953.830694125,0.07941692621313939,0.1033063867379332,0.007675429486152928,-0.1699593216180801,0.6286331415176392,0.5954307913780212,-0.2605598866939545,-0.02706886269152164,-0.1302233338356018,XArbitraryZVertical,0.001779962583423517,0.05174129417184777,0.03984277531788678,0.9978638427581482,0.1031196936964989,-0.007675353903323412,-0.9946393370628357,0,0,0,-1,-1,12951.69544429167,unknown,2,2024-04-18T12:49:14.639+02:00,2024-04-17T14:37:41.930+02:00,4191,1.185061,0,0,3466.396,19,7,2024-04-18T12:07:18.770+02:00,735130154.7025496,0,-54.64,100.937
2024-04-18T12:49:16.815+02:00,12953.87060479167,-0.2481536865234375,-0.11468505859375,-0.6999664306640625,12953.830694125,0.07941692621313939,0.1033063867379332,0.007675429486152928,-0.1699593216180801,0.6286331415176392,0.5954307913780212,-0.2605598866939545,-0.02706886269152164,-0.1302233338356018,XArbitraryZVertical,0.001779962583423517,0.05174129417184777,0.03984277531788678,0.9978638427581482,0.1031196936964989,-0.007675353903323412,-0.9946393370628357,0,0,0,-1,-1,12951.69544429167,unknown,2,2024-04-18T12:49:14.639+02:00,2024-04-17T14:37:41.930+02:00,4191,1.185061,0,0,3466.396,19,7,2024-04-18T12:07:18.770+02:00,735130154.7025496,0,-54.64,100.937
2024-04-18T12:49:16.850+02:00,12953.90552779167,-0.1444091796875,0.011627197265625,-0.987274169921875,12953.89056079167,0.09921147496773211,0.1223613557817246,-0.02523373746390007,-0.4158989787101746,-0.01173550821840763,-0.1043445765972137,-0.3470234870910645,-0.0909353569149971,0.2512709498405457,XArbitraryZVertical,-0.01560897095416022,0.06043801430471129,0.04871822234616041,0.9968602345405743,0.1220173910260201,0.02523105964064598,-0.9922072291374207,0,0,0,-1,-1,12951.69544429167,unknown,2,2024-04-18T12:49:14.639+02:00,2024-04-17T14:37:41.930+02:00,4191,1.185061,0,0,3466.396,19,7,2024-04-18T12:07:18.770+02:00,735130154.7025496,0,-54.64,100.937
