loggingTime(txt),locationTimestamp_since1970(s),locationLatitude(WGS84),locationLongitude(WGS84),locationAltitude(m),locationSpeed(m/s),locationSpeedAccuracy(m/s),locationCourse(°),locationCourseAccuracy(°),locationVerticalAccuracy(m),locationHorizontalAccuracy(m),locationFloor(Z),accelerometerTimestamp_sinceReboot(s),accelerometerAccelerationX(G),accelerometerAccelerationY(G),accelerometerAccelerationZ(G),motionTimestamp_sinceReboot(s),motionYaw(rad),motionRoll(rad),motionPitch(rad),motionRotationRateX(rad/s),motionRotationRateY(rad/s),motionRotationRateZ(rad/s),motionUserAccelerationX(G),motionUserAccelerationY(G),motionUserAccelerationZ(G),motionAttitudeReferenceFrame(txt),motionQuaternionX(R),motionQuaternionY(R),motionQuaternionZ(R),motionQuaternionW(R),motionGravityX(G),motionGravityY(G),motionGravityZ(G),motionMagneticFieldX(µT),motionMagneticFieldY(µT),motionMagneticFieldZ(µT),motionHeading(°),motionMagneticFieldCalibrationAccuracy(Z),activityTimestamp_sinceReboot(s),activity(txt),activityActivityConfidence(Z),activityActivityStartDate(txt),pedometerStartDate(txt),pedometerNumberofSteps(N),pedometerAverageActivePace(s/m),pedometerCurrentPace(s/m),pedometerCurrentCadence(steps/s),pedometerDistance(m),pedometerFloorAscended(N),pedometerFloorDescended(N),pedometerEndDate(txt),altimeterTimestamp_sinceReboot(s),altimeterReset(bool),altimeterRelativeAltitude(m),altimeterPressure(kPa),batteryState(N),batteryLevel(R)
2024-04-09T13:03:11.896+02:00,1712660590.99881,53.22969102918199,10.40021009298944,35.26184,0,1.211609,73.68775718045516,180,3.367310073407493,4.74191521458548,-9999,28657.03714054167,0.35888671875,-0.0565338134765625,-0.9156646728515625,28657.01718454167,2.522999289909164,0.3924885842896037,0.02518082885055276,0.1833979785442352,-0.1159121692180634,0.06377429515123367,0.07852399349212646,0.08105587214231491,-0.01360398530960083,XArbitraryZVertical,-0.1819611103056413,0.07110964218727454,0.9349376647316067,0.2961841615012614,0.3823677003383636,-0.02517816796898842,-0.9236671328544617,0,0,0,-1,-1,28637.56994825,unknown,2,2024-04-09T13:02:52.315+02:00,2024-04-09T08:50:23.531+02:00,2387,1.337689,0,0,1970.191,2,0,2024-04-09T12:41:02.932+02:00,734353390.2513243,0,42.68,99.44483,1,0.85
2024-04-09T13:03:11.903+02:00,1712660590.99881,53.22969102918199,10.40021009298944,35.26184,0,1.211609,73.68775718045516,180,3.367310073407493,4.74191521458548,-9999,28657.07206454167,0.3844757080078125,-0.0272216796875,-0.9368896484375,28657.01718454167,2.522999289909164,0.3924885842896037,0.02518082885055276,0.1833979785442352,-0.1159121692180634,0.06377429515123367,0.07852399349212646,0.08105587214231491,-0.01360398530960083,XArbitraryZVertical,-0.1819611103056413,0.07110964218727454,0.9349376647316067,0.2961841615012614,0.3823677003383636,-0.02517816796898842,-0.9236671328544617,0,0,0,-1,-1,28637.56994825,unknown,2,2024-04-09T13:02:52.315+02:00,2024-04-09T08:50:23.531+02:00,2387,1.337689,0,0,1970.191,2,0,2024-04-09T12:41:02.932+02:00,734353390.2513243,0,42.68,99.44483,1,0.85
2024-04-09T13:03:11.904+02:00,1712660590.99881,53.22969102918199,10.40021009298944,35.26184,0,1.211609,73.68775718045516,180,3.367310073407493,4.74191521458548,-9999,28657.10698754167,0.386932373046875,-0.0132904052734375,-0.9267730712890625,28657.07705354167,2.52486168037485,0.3911505866532675,0.02727365786573751,-0.03538079187273979,-0.02575887739658356,0.03273214772343636,0.004250109195709229,-0.002163907513022423,-0.01286929845809937,XArbitraryZVertical,-0.1810875000123093,0.07171974529640064,0.9353835305436982,0.2951630023994711,0.3811105489730835,-0.02727027609944344,-0.9241271615028381,0,0,0,-1,-1,28637.56994825,unknown,2,2024-04-09T13:02:52.315+02:00,2024-04-09T08:50:23.531+02:00,2387,1.337689,0,0,1970.191,2,0,2024-04-09T12:41:02.932+02:00,734353390.2513243,0,42.68,99.44483,1,0.85
2024-04-09T13:03:11.906+02:00,1712660590.99881,53.22969102918199,10.40021009298944,35.26184,0,1.211609,73.68775718045516,180,3.367310073407493,4.74191521458548,-9999,28657.1419095,0.3691253662109375,-0.0396881103515625,-0.925567626953125,28657.1369205,2.524733409459843,0.3907706970604828,0.0257154574149221,-0.1036486625671387,0.02155843749642372,-0.06343033909797668,-0.01015448570251465,-0.01501306518912315,0.003320097923278809,XArbitraryZVertical,-0.1811391144202341,0.07094774461771373,0.935362747617321,0.2953838317203523,0.3807751834392548,-0.02571262419223785,-0.9243100881576538,0,0,0,-1,-1,28637.56994825,unknown,2,2024-04-09T13:02:52.315+02:00,2024-04-09T08:50:23.531+02:00,2387,1.337689,0,0,1970.191,2,0,2024-04-09T12:41:02.932+02:00,734353390.2513243,0,42.68,99.44483,1,0.85
2024-04-09T13:03:11.924+02:00,1712660590.99881,53.22969102918199,10.40021009298944,35.26184,0,1.211609,73.68775718045516,180,3.367310073407493,4.74191521458548,-9999,28657.1768325,0.388916015625,-0.0045928955078125,-0.939361572265625,28657.1369205,2.524733409459843,0.3907706970604828,0.0257154574149221,-0.1036486625671387,0.02155843749642372,-0.06343033909797668,-0.01015448570251465,-0.01501306518912315,0.003320097923278809,XArbitraryZVertical,-0.1811391144202341,0.07094774461771373,0.935362747617321,0.2953838317203523,0.3807751834392548,-0.02571262419223785,-0.9243100881576538,0,0,0,-1,-1,28637.56994825,unknown,2,2024-04-09T13:02:52.315+02:00,2024-04-09T08:50:23.531+02:00,2387,1.337689,0,0,1970.191,2,0,2024-04-09T12:41:02.932+02:00,734353390.2513243,0,42.68,99.44483,1,0.85
2024-04-09T13:03:11.958+02:00,1712660590.99881,53.22969102918199,10.40021009298944,35.26184,0,1.211609,73.68775718045516,180,3.367310073407493,4.74191521458548,-9999,28657.2117565,0.3827056884765625,-0.0184783935546875,-0.938873291015625,28657.1967885,2.523351615748696,0.390849803231675,0.02358797697834533,0.05964456871151924,-0.02832260727882385,-0.02257991954684258,0.007650971412658691,0.01546813361346722,-0.01565873622894287,XArbitraryZVertical,-0.1814468876706604,0.07009140433118405,0.9351007281136651,0.2962278883724633,0.3808682858943939,-0.02358578890562057,-0.9243284463882446,0,0,0,-1,-1,28637.56994825,unknown,2,2024-04-09T13:02:52.315+02:00,2024-04-09T08:50:23.531+02:00,2387,1.337689,0,0,1970.191,2,0,2024-04-09T12:41:02.932+02:00,734353390.2513243,0,42.68,99.44483,1,0.85
2024-04-09T13:03:11.996+02:00,1712660590.99881,53.22969102918199,10.40021009298944,35.26184,0,1.211609,73.68775718045516,180,3.367310073407493,4.74191521458548,-9999,28657.2466795,0.3740997314453125,-0.0496368408203125,-0.9375152587890625,28657.1967885,2.523351615748696,0.390849803231675,0.02358797697834533,0.05964456871151924,-0.02832260727882385,-0.02257991954684258,0.007650971412658691,0.01546813361346722,-0.01565873622894287,XArbitraryZVertical,-0.1814468876706604,0.07009140433118405,0.9351007281136651,0.2962278883724633,0.3808682858943939,-0.02358578890562057,-0.9243284463882446,0,0,0,-1,-1,28637.56994825,unknown,2,2024-04-09T13:02:52.315+02:00,2024-04-09T08:50:23.531+02:00,2387,1.337689,0,0,1970.191,2,0,2024-04-09T12:41:02.932+02:00,734353390.2513243,0,42.68,99.44483,1,0.85
2024-04-09T13:03:12.028+02:00,1712660590.99881,53.22969102918199,10.40021009298944,35.26184,0,1.211609,73.68775718045516,180,3.367310073407493,4.74191521458548,-9999,28657.2816035,0.3940277099609375,-0.025390625,-0.9423675537109375,28657.2566575,2.521572340407855,0.3893305463648379,0.02640089364930738,-0.004227665718644857,0.01164442114531994,-0.0005491101182997227,-0.005337178707122803,-0.02323899418115616,-0.01267427206039429,XArbitraryZVertical,-0.1802501191349656,0.07134009700180899,0.9350408790441058,0.2968485893827285,0.3794368803501129,-0.0263978261500597,-0.9248409867286682,0,0,0,-1,-1,28637.56994825,unknown,2,2024-04-09T13:02:52.315+02:00,2024-04-09T08:50:23.531+02:00,2387,1.337689,0,0,1970.191,2,0,2024-04-09T12:41:02.932+02:00,734353390.2513243,0,42.68,99.44483,1,0.85
2024-04-09T13:03:12.062+02:00,1712660590.99881,53.22969102918199,10.40021009298944,35.26184,0,1.211609,73.68775718045516,180,3.367310073407493,4.74191521458548,-9999,28657.3165265,0.3825531005859375,-0.04180908203125,-0.934722900390625,28657.2566575,2.521572340407855,0.3893305463648379,0.02640089364930738,-0.004227665718644857,0.01164442114531994,-0.0005491101182997227,-0.005337178707122803,-0.02323899418115616,-0.01267427206039429,XArbitraryZVertical,-0.1802501191349656,0.07134009700180899,0.9350408790441058,0.2968485893827285,0.3794368803501129,-0.0263978261500597,-0.9248409867286682,0,0,0,-1,-1,28637.56994825,unknown,2,2024-04-09T13:02:52.315+02:00,2024-04-09T08:50:23.531+02:00,2387,1.337689,0,0,1970.191,2,0,2024-04-09T12:41:02.932+02:00,734353390.2513243,0,42.68,99.44483,1,0.85
2024-04-09T13:03:12.097+02:00,1712660590.99881,53.22969102918199,10.40021009298944,35.26184,0,1.211609,73.68775718045516,180,3.367310073407493,4.74191521458548,-9999,28657.3514495,0.3858184814453125,-0.0318756103515625,-0.9365997314453125,28657.3165265,2.521454055427504,0.3888924603978345,0.02702255584711954,0.005135698243975639,-0.006620737724006176,7.540127262473106e-05,0.005114614963531494,-0.005390381440520287,-0.007991671562194824,XArbitraryZVertical,-0.179947283593682,0.07157587854807217,0.93507718921075,0.2968610397547517,0.3790253698825836,-0.02701926790177822,-0.9249917268753052,0,0,0,-1,-1,28637.56994825,unknown,2,2024-04-09T13:02:52.315+02:00,2024-04-09T08:50:23.531+02:00,2387,1.337689,0,0,1970.191,2,0,2024-04-09T12:41:02.932+02:00,734353390.2513243,0,42.68,99.44483,1,0.85
2024-04-09T13:03:12.132+02:00,1712660590.99881,53.22969102918199,10.40021009298944,35.26184,0,1.211609,73.68775718045516,180,3.367310073407493,4.74191521458548,-9999,28657.3863735,0.3802337646484375,-0.033721923828125,-0.9289093017578125,28657.3763955,2.521791078330973,0.3889243651657307,0.02755587516934484,0.02877569012343884,-0.002580302767455578,0.01167270634323359,0.003549486398696899,0.007273478433489799,-0.008505523204803467,XArbitraryZVertical,-0.1798938179752252,0.07179921857500934,0.9351366065232508,0.2966521263339231,0.3790493607521057,-0.02755238860845566,-0.9249661564826965,0,0,0,-1,-1,28637.56994825,unknown,2,2024-04-09T13:02:52.315+02:00,2024-04-09T08:50:23.531+02:00,2387,1.337689,0,0,1970.191,2,0,2024-04-09T12:41:02.932+02:00,734353390.2513243,0,42.68,99.44483,1,0.85
2024-04-09T13:03:12.167+02:00,1712660590.99881,53.22969102918199,10.40021009298944,35.26184,0,1.211609,73.68775718045516,180,3.367310073407493,4.74191521458548,-9999,28657.4212965,0.3828125,-0.030181884765625,-0.937103271484375,28657.3763955,2.521791078330973,0.3889243651657307,0.02755587516934484,0.02877569012343884,-0.002580302767455578,0.01167270634323359,0.003549486398696899,0.007273478433489799,-0.008505523204803467,XArbitraryZVertical,-0.1798938179752252,0.07179921857500934,0.9351366065232508,0.2966521263339231,0.3790493607521057,-0.02755238860845566,-0.9249661564826965,0,0,0,-1,-1,28637.56994825,unknown,2,2024-04-09T13:02:52.315+02:00,2024-04-09T08:50:23.531+02:00,2387,1.337689,0,0,1970.191,2,0,2024-04-09T12:41:02.932+02:00,734353390.2513243,0,42.68,99.44483,1,0.85
2024-04-09T13:03:12.202+02:00,1712660590.99881,53.22969102918199,10.40021009298944,35.26184,0,1.211609,73.68775718045516,180,3.367310073407493,4.74191521458548,-9999,28657.4562205,0.3805389404296875,-0.0265960693359375,-0.938995361328125,28657.4362645,2.522252983428977,0.389561509065902,0.02952584330892943,0.02683278173208237,0.005263486877083778,0.0285150334239006,0.004476934671401978,-0.001057039946317673,-0.01230871677398682,XArbitraryZVertical,-0.1799112625975382,0.0727715723060442,0.9351926931379733,0.2962275132940365,0.3796172738075256,-0.02952155284583569,-0.9246724843978882,0,0,0,-1,-1,28637.56994825,unknown,2,2024-04-09T13:02:52.315+02:00,2024-04-09T08:50:23.531+02:00,2387,1.337689,0,0,1970.191,2,0,2024-04-09T12:41:02.932+02:00,734353390.2513243,0,42.68,99.44483,1,0.85
2024-04-09T13:03:12.237+02:00,1712660591.998785,53.22969102918199,10.40021009298944,35.26184,0,1.183113,73.68775718045516,180,3.366667838661356,4.742371210366404,-9999,28657.4911435,0.38238525390625,-0.030364990234375,-0.9394683837890625,28657.4362645,2.522252983428977,0.389561509065902,0.02952584330892943,0.02683278173208237,0.005263486877083778,0.0285150334239006,0.004476934671401978,-0.001057039946317673,-0.01230871677398682,XArbitraryZVertical,-0.1799112625975382,0.0727715723060442,0.9351926931379733,0.2962275132940365,0.3796172738075256,-0.02952155284583569,-0.9246724843978882,0,0,0,-1,-1,28637.56994825,unknown,2,2024-04-09T13:02:52.315+02:00,2024-04-09T08:50:23.531+02:00,2387,1.337689,0,0,1970.191,2,0,2024-04-09T12:41:02.932+02:00,734353390.2513243,0,42.68,99.44483,1,0.85
2024-04-09T13:03:12.272+02:00,1712660591.998785,53.22969102918199,10.40021009298944,35.26184,0,1.183113,73.68775718045516,180,3.366667838661356,4.742371210366404,-9999,28657.5260675,0.375885009765625,-0.0331878662109375,-0.9329681396484375,28657.4961325,2.522401316070606,0.3894056026869481,0.03096974135580532,0.03206438571214676,-0.01613090559840202,-0.004628312308341265,0.003981530666351318,-4.10471111536026e-05,-0.01683706045150757,XArbitraryZVertical,-0.1796259438425021,0.07340905790788808,0.9352611191311186,0.2960276285261819,0.3794565498828888,-0.03096479177474976,-0.9246912598609924,0,0,0,-1,-1,28637.56994825,unknown,2,2024-04-09T13:02:52.315+02:00,2024-04-09T08:50:23.531+02:00,2387,1.337689,0,0,1970.191,2,0,2024-04-09T12:41:02.932+02:00,734353390.2513243,0,42.68,99.44483,1,0.85
2024-04-09T13:03:12.307+02:00,1712660591.998785,53.22969102918199,10.40021009298944,35.26184,0,1.183113,73.68775718045516,180,3.366667838661356,4.742371210366404,-9999,28657.5609905,0.3837432861328125,-0.0348968505859375,-0.9266815185546875,28657.5560015,2.520858113666882,0.3887128579671591,0.03086095353775615,0.0148450955748558,-0.01779652014374733,-0.03019507601857185,0.004926085472106934,0.008257811889052391,-0.007538080215454102,XArbitraryZVertical,-0.1792618245601436,0.07339408053720907,0.9350921264884231,0.2967848810713969,0.3788171410560608,-0.03085605427622795,-0.9249570369720459,0,0,0,-1,-1,28637.56994825,unknown,2,2024-04-09T13:02:52.315+02:00,2024-04-09T08:50:23.531+02:00,2387,1.337689,0,0,1970.191,2,0,2024-04-09T12:41:02.932+02:00,734353390.2513243,0,42.68,99.44483,1,0.85
2024-04-09T13:03:12.342+02:00,1712660591.998785,53.22969102918199,10.40021009298944,35.26184,0,1.183113,73.68775718045516,180,3.366667838661356,4.742371210366404,-9999,28657.5959145,0.392486572265625,-0.025177001953125,-0.9345855712890625,28657.5560015,2.520858113666882,0.3887128579671591,0.03086095353775615,0.0148450955748558,-0.01779652014374733,-0.03019507601857185,0.004926085472106934,0.008257811889052391,-0.007538080215454102,XArbitraryZVertical,-0.1792618245601436,0.07339408053720907,0.9350921264884231,0.2967848810713969,0.3788171410560608,-0.03085605427622795,-0.9249570369720459,0,0,0,-1,-1,28637.56994825,unknown,2,2024-04-09T13:02:52.315+02:00,2024-04-09T08:50:23.531+02:00,2387,1.337689,0,0,1970.191,2,0,2024-04-09T12:41:02.932+02:00,734353390.2513243,0,42.68,99.44483,1,0.85
2024-04-09T13:03:12.377+02:00,1712660591.998785,53.22969102918199,10.40021009298944,35.26184,0,1.183113,73.68775718045516,180,3.366667838661356,4.742371210366404,-9999,28657.6308375,0.3729400634765625,-0.0379180908203125,-0.9261322021484375,28657.6158705,2.519659104032247,0.3888395367371215,0.02910093336683615,0.03725315630435944,-0.01983568631112576,-0.004118430893868208,0.01162487268447876,0.004148727282881737,-0.007674634456634521,XArbitraryZVertical,-0.1795435992674592,0.07269922207027503,0.9348629793337139,0.2975065582915328,0.3789543211460114,-0.0290968269109726,-0.924957811832428,0,0,0,-1,-1,28637.56994825,unknown,2,2024-04-09T13:02:52.315+02:00,2024-04-09T08:50:23.531+02:00,2387,1.337689,0,0,1970.191,2,0,2024-04-09T12:41:02.932+02:00,734353390.2513243,0,42.68,99.44483,1,0.85
2024-04-09T13:03:12.412+02:00,1712660591.998785,53.22969102918199,10.40021009298944,35.26184,0,1.183113,73.68775718045516,180,3.366667838661356,4.742371210366404,-9999,28657.6657615,0.38763427734375,-0.0385284423828125,-0.9401397705078125,28657.6158705,2.519659104032247,0.3888395367371215,0.02910093336683615,0.03725315630435944,-0.01983568631112576,-0.004118430893868208,0.01162487268447876,0.004148727282881737,-0.007674634456634521,XArbitraryZVertical,-0.1795435992674592,0.07269922207027503,0.9348629793337139,0.2975065582915328,0.3789543211460114,-0.0290968269109726,-0.924957811832428,0,0,0,-1,-1,28637.56994825,unknown,2,2024-04-09T13:02:52.315+02:00,2024-04-09T08:50:23.531+02:00,2387,1.337689,0,0,1970.191,2,0,2024-04-09T12:41:02.932+02:00,734353390.2513243,0,42.68,99.44483,1,0.85
2024-04-09T13:03:12.446+02:00,1712660591.998785,53.22969102918199,10.40021009298944,35.26184,0,1.183113,73.68775718045516,180,3.366667838661356,4.742371210366404,-9999,28657.7006845,0.3944091796875,-0.022186279296875,-0.93206787109375,28657.6757395,2.519506381559117,0.3890000322105309,0.02931860446006147,-0.01615818403661251,0.003961009904742241,0.01812565885484219,0.008533895015716553,-0.009214019402861595,-0.01524865627288818,XArbitraryZVertical,-0.1795801129941079,0.07283836310568324,0.9348307305799629,0.2975515335580897,0.3791003525257111,-0.02931440435349941,-0.9248911142349243,0,0,0,-1,-1,28637.56994825,unknown,2,2024-04-09T13:02:52.315+02:00,2024-04-09T08:50:23.531+02:00,2387,1.337689,0,0,1970.191,2,0,2024-04-09T12:41:02.932+02:00,734353390.2513243,0,42.68,99.44483,1,0.85
2024-04-09T13:03:12.482+02:00,1712660591.998785,53.22969102918199,10.40021009298944,35.26184,0,1.183113,73.68775718045516,180,3.366667838661356,4.742371210366404,-9999,28657.7356075,0.379669189453125,-0.0303955078125,-0.9234771728515625,28657.6757395,2.519506381559117,0.3890000322105309,0.02931860446006147,-0.01615818403661251,0.003961009904742241,0.01812565885484219,0.008533895015716553,-0.009214019402861595,-0.01524865627288818,XArbitraryZVertical,-0.1795801129941079,0.07283836310568324,0.9348307305799629,0.2975515335580897,0.3791003525257111,-0.02931440435349941,-0.9248911142349243,0,0,0,-1,-1,28637.56994825,unknown,2,2024-04-09T13:02:52.315+02:00,2024-04-09T08:50:23.531+02:00,2387,1.337689,0,0,1970.191,2,0,2024-04-09T12:41:02.932+02:00,734353390.2513243,0,42.68,99.44483,1,0.85
2024-04-09T13:03:12.517+02:00,1712660591.998785,53.22969102918199,10.40021009298944,35.26184,0,1.183113,73.68775718045516,180,3.366667838661356,4.742371210366404,-9999,28657.7705315,0.3836669921875,-0.022186279296875,-0.927520751953125,28657.7356075,2.520132729616322,0.3880706783675237,0.03022044848014994,-1.236982643604279e-05,-0.01548381336033344,0.009611230343580246,0.003437578678131104,0.0007969234138727188,0.001603662967681885,XArbitraryZVertical,-0.1790319291853009,0.07306481611634282,0.9350276494437624,0.297207873107463,0.378230482339859,-0.03021584823727608,-0.9252182245254517,0,0,0,-1,-1,28637.56994825,unknown,2,2024-04-09T13:02:52.315+02:00,2024-04-09T08:50:23.531+02:00,2387,1.337689,0,0,1970.191,2,0,2024-04-09T12:41:02.932+02:00,734353390.2513243,0,42.68,99.44483,1,0.85
2024-04-09T13:03:12.552+02:00,1712660591.998785,53.22969102918199,10.40021009298944,35.26184,0,1.183113,73.68775718045516,180,3.366667838661356,4.742371210366404,-9999,28657.8054545,0.381439208984375,-0.0272979736328125,-0.9313812255859375,28657.7954765,2.52065672400702,0.3882750519663833,0.02957663456496057,0.01213768124580383,-0.0004913955926895142,-0.0009668082930147648,0.004568725824356079,0.001023147255182266,-0.008053600788116455,XArbitraryZVertical,-0.1792440070608952,0.07274780854028756,0.9350726411070528,0.2970159228385689,0.3784268498420715,-0.02957232296466827,-0.925158679485321,0,0,0,-1,-1,28637.56994825,unknown,2,2024-04-09T13:02:52.315+02:00,2024-04-09T08:50:23.531+02:00,2387,1.337689,0,0,1970.191,2,0,2024-04-09T12:41:02.932+02:00,734353390.2513243,0,42.68,99.44483,1,0.85
2024-04-09T13:03:12.586+02:00,1712660591.998785,53.22969102918199,10.40021009298944,35.26184,0,1.183113,73.68775718045516,180,3.366667838661356,4.742371210366404,-9999,28657.8403785,0.3737030029296875,-0.032958984375,-0.930145263671875,28657.7954765,2.52065672400702,0.3882750519663833,0.02957663456496057,0.01213768124580383,-0.0004913955926895142,-0.0009668082930147648,0.004568725824356079,0.001023147255182266,-0.008053600788116455,XArbitraryZVertical,-0.1792440070608952,0.07274780854028756,0.9350726411070528,0.2970159228385689,0.3784268498420715,-0.02957232296466827,-0.925158679485321,0,0,0,-1,-1,28637.56994825,unknown,2,2024-04-09T13:02:52.315+02:00,2024-04-09T08:50:23.531+02:00,2387,1.337689,0,0,1970.191,2,0,2024-04-09T12:41:02.932+02:00,734353390.2513243,0,42.68,99.44483,1,0.85
2024-04-09T13:03:12.621+02:00,1712660591.998785,53.22969102918199,10.40021009298944,35.26184,0,1.183113,73.68775718045516,180,3.366667838661356,4.742371210366404,-9999,28657.8753015,0.3784637451171875,-0.0357818603515625,-0.943145751953125,28657.8553455,2.520206996733589,0.3876145034236692,0.03198545238762418,0.01332536153495312,-0.001218019984662533,0.01745191775262356,-0.002787649631500244,-0.002092856913805008,-0.005812525749206543,XArbitraryZVertical,-0.178554139895838,0.07381399462021655,0.9351186164553978,0.2970238671929482,0.3777876496315002,-0.031980000436306,-0.9253398180007935,0,0,0,-1,-1,28637.56994825,unknown,2,2024-04-09T13:02:52.315+02:00,2024-04-09T08:50:23.531+02:00,2387,1.337689,0,0,1970.191,2,0,2024-04-09T12:41:02.932+02:00,734353390.2513243,0,42.68,99.44483,1,0.85
2024-04-09T13:03:12.656+02:00,1712660591.998785,53.22969102918199,10.40021009298944,35.26184,0,1.183113,73.68775718045516,180,3.366667838661356,4.742371210366404,-9999,28657.9102255,0.3926849365234375,-0.020416259765625,-0.9473114013671875,28657.8553455,2.520206996733589,0.3876145034236692,0.03198545238762418,0.01332536153495312,-0.001218019984662533,0.01745191775262356,-0.002787649631500244,-0.002092856913805008,-0.005812525749206543,XArbitraryZVertical,-0.178554139895838,0.07381399462021655,0.9351186164553978,0.2970238671929482,0.3777876496315002,-0.031980000436306,-0.9253398180007935,0,0,0,-1,-1,28637.56994825,unknown,2,2024-04-09T13:02:52.315+02:00,2024-04-09T08:50:23.531+02:00,2387,1.337689,0,0,1970.191,2,0,2024-04-09T12:41:02.932+02:00,734353390.2513243,0,42.68,99.44483,1,0.85
2024-04-09T13:03:12.692+02:00,1712660591.998785,53.22969102918199,10.40021009298944,35.26184,0,1.183113,73.68775718045516,180,3.366667838661356,4.742371210366404,-9999,28657.9451485,0.37664794921875,-0.0409088134765625,-0.9372711181640625,28657.9152145,2.521534729733029,0.3882566218469935,0.0325188052294663,0.03803705424070358,-0.01899947039783001,0.03747504577040672,0.01278379559516907,0.0134396106004715,-0.02291691303253174,XArbitraryZVertical,-0.1788227779913736,0.07403950749884082,0.9352698668402826,0.2963290459640655,0.378375232219696,-0.03251307457685471,-0.9250811338424683,0,0,0,-1,-1,28637.56994825,unknown,2,2024-04-09T13:02:52.315+02:00,2024-04-09T08:50:23.531+02:00,2387,1.337689,0,0,1970.191,2,0,2024-04-09T12:41:02.932+02:00,734353390.2513243,0,42.68,99.44483,1,0.85
2024-04-09T13:03:12.726+02:00,1712660591.998785,53.22969102918199,10.40021009298944,35.26184,0,1.183113,73.68775718045516,180,3.366667838661356,4.742371210366404,-9999,28657.9800725,0.3813934326171875,-0.033203125,-0.93670654296875,28657.9750835,2.522154577078094,0.3870590641697324,0.03499960262696758,0.05650656670331955,-0.01859442330896854,0.01214728131890297,0.007087588310241699,0.0009196028113365173,-0.01598072052001953,XArbitraryZVertical,-0.1779108400246261,0.07496473696601645,0.9355216450232243,0.2958499060572241,0.3772355020046234,-0.03499245643615723,-0.9254560470581055,0,0,0,-1,-1,28637.56994825,unknown,2,2024-04-09T13:02:52.315+02:00,2024-04-09T08:50:23.531+02:00,2387,1.337689,0,0,1970.191,2,0,2024-04-09T12:41:02.932+02:00,734353390.2513243,0,42.68,99.44483,1,0.85
2024-04-09T13:03:12.761+02:00,1712660591.998785,53.22969102918199,10.40021009298944,35.26184,0,1.183113,73.68775718045516,180,3.366667838661356,4.742371210366404,-9999,28658.0149955,0.37164306640625,-0.0457305908203125,-0.92547607421875,28657.9750835,2.522154577078094,0.3870590641697324,0.03499960262696758,0.05650656670331955,-0.01859442330896854,0.01214728131890297,0.007087588310241699,0.0009196028113365173,-0.01598072052001953,XArbitraryZVertical,-0.1779108400246261,0.07496473696601645,0.9355216450232243,0.2958499060572241,0.3772355020046234,-0.03499245643615723,-0.9254560470581055,0,0,0,-1,-1,28637.56994825,unknown,2,2024-04-09T13:02:52.315+02:00,2024-04-09T08:50:23.531+02:00,2387,1.337689,0,0,1970.191,2,0,2024-04-09T12:41:02.932+02:00,734353390.2513243,0,42.68,99.44483,1,0.85
2024-04-09T13:03:12.796+02:00,1712660591.998785,53.22969102918199,10.40021009298944,35.26184,0,1.183113,73.68775718045516,180,3.366667838661356,4.742371210366404,-9999,28658.0499185,0.3798675537109375,-0.04144287109375,-0.9313812255859375,28658.0349515,2.521394648719304,0.3866437059851496,0.03652221138604481,0.04556501284241676,0.005849571898579597,0.007989630103111267,-0.003219127655029297,-0.005478076636791229,-0.004277825355529785,XArbitraryZVertical,-0.1774576115348351,0.07568139303197936,0.9354780808084203,0.2960776804723404,0.3768305480480194,-0.03651409223675728,-0.9255622625350952,0,0,0,-1,-1,28637.56994825,unknown,2,2024-04-09T13:02:52.315+02:00,2024-04-09T08:50:23.531+02:00,2387,1.337689,0,0,1970.191,2,0,2024-04-09T12:41:02.932+02:00,734353390.2513243,0,42.68,99.44483,1,0.85
2024-04-09T13:03:12.831+02:00,1712660591.998785,53.22969102918199,10.40021009298944,35.26184,0,1.183113,73.68775718045516,180,3.366667838661356,4.742371210366404,-9999,28658.0848425,0.37939453125,-0.039520263671875,-0.9307861328125,28658.0349515,2.521394648719304,0.3866437059851496,0.03652221138604481,0.04556501284241676,0.005849571898579597,0.007989630103111267,-0.003219127655029297,-0.005478076636791229,-0.004277825355529785,XArbitraryZVertical,-0.1774576115348351,0.07568139303197936,0.9354780808084203,0.2960776804723404,0.3768305480480194,-0.03651409223675728,-0.9255622625350952,0,0,0,-1,-1,28637.56994825,unknown,2,2024-04-09T13:02:52.315+02:00,2024-04-09T08:50:23.531+02:00,2387,1.337689,0,0,1970.191,2,0,2024-04-09T12:41:02.932+02:00,734353392.8047925,0,42.62,99.44508,1,0.85
2024-04-09T13:03:12.866+02:00,1712660591.998785,53.22969102918199,10.40021009298944,35.26184,0,1.183113,73.68775718045516,180,3.366667838661356,4.742371210366404,-9999,28658.11976525,0.3740081787109375,-0.050018310546875,-0.9394989013671875,28658.0948205,2.521060117589247,0.3871416482432481,0.03958095338837252,0.08253577351570129,-0.004710756242275238,0.01529182866215706,0.002147048711776733,5.037710070610046e-05,-0.005519390106201172,XArbitraryZVertical,-0.1772143841082854,0.07721200496846069,0.935446927117584,0.2959264475839324,0.3772474527359009,-0.03957061842083931,-0.9252667427062988,0,0,0,-1,-1,28637.56994825,unknown,2,2024-04-09T13:02:52.315+02:00,2024-04-09T08:50:23.531+02:00,2387,1.337689,0,0,1970.191,2,0,2024-04-09T12:41:02.932+02:00,734353392.8047925,0,42.62,99.44508,1,0.85
2024-04-09T13:03:12.901+02:00,1712660591.998785,53.22969102918199,10.40021009298944,35.26184,0,1.183113,73.68775718045516,180,3.366667838661356,4.742371210366404,-9999,28658.15468925,0.383819580078125,-0.04302978515625,-0.9430999755859375,28658.0948205,2.521060117589247,0.3871416482432481,0.03958095338837252,0.08253577351570129,-0.004710756242275238,0.01529182866215706,0.002147048711776733,5.037710070610046e-05,-0.005519390106201172,XArbitraryZVertical,-0.1772143841082854,0.07721200496846069,0.935446927117584,0.2959264475839324,0.3772474527359009,-0.03957061842083931,-0.9252667427062988,0,0,0,-1,-1,28637.56994825,unknown,2,2024-04-09T13:02:52.315+02:00,2024-04-09T08:50:23.531+02:00,2387,1.337689,0,0,1970.191,2,0,2024-04-09T12:41:02.932+02:00,734353392.8047925,0,42.62,99.44508,1,0.85
2024-04-09T13:03:12.936+02:00,1712660591.998785,53.22969102918199,10.40021009298944,35.26184,0,1.183113,73.68775718045516,180,3.366667838661356,4.742371210366404,-9999,28658.18961225,0.3762359619140625,-0.0586700439453125,-0.9354400634765625,28658.15468925,2.51992398397996,0.3868379679976948,0.0445042298335175,0.1063169538974762,-0.01246483437716961,0.01493386086076498,0.01211917400360107,0.0006357990205287933,-0.01858174800872803,XArbitraryZVertical,-0.1762803224019347,0.07956406540520336,0.9354018663666254,0.2960035722757675,0.3768883943557739,-0.0444895401597023,-0.9251896142959595,0,0,0,-1,-1,28637.56994825,unknown,2,2024-04-09T13:02:52.315+02:00,2024-04-09T08:50:23.531+02:00,2387,1.337689,0,0,1970.191,2,0,2024-04-09T12:41:02.932+02:00,734353392.8047925,0,42.62,99.44508,1,0.85
2024-04-09T13:03:12.971+02:00,1712660591.998785,53.22969102918199,10.40021009298944,35.26184,0,1.183113,73.68775718045516,180,3.366667838661356,4.742371210366404,-9999,28658.22453625,0.3778839111328125,-0.0562286376953125,-0.937744140625,28658.21455825,2.518991820928865,0.3862507328149506,0.04777272044545903,0.03149615228176117,-0.01567375287413597,0.007299491669982672,0.005883365869522095,-0.002172186970710754,-0.01160323619842529,XArbitraryZVertical,-0.1754705831315349,0.08108332791724715,0.935376355994422,0.2961530720314137,0.3762882351875305,-0.04775455221533775,-0.9252711534500122,0,0,0,-1,-1,28637.56994825,unknown,2,2024-04-09T13:02:52.315+02:00,2024-04-09T08:50:23.531+02:00,2387,1.337689,0,0,1970.191,2,0,2024-04-09T12:41:02.932+02:00,734353392.8047925,0,42.62,99.44508,1,0.85
2024-04-09T13:03:13.006+02:00,1712660591.998785,53.22969102918199,10.40021009298944,35.26184,0,1.183113,73.68775718045516,180,3.366667838661356,4.742371210366404,-9999,28658.25945925,0.381256103515625,-0.0433502197265625,-0.9338531494140625,28658.21455825,2.518991820928865,0.3862507328149506,0.04777272044545903,0.03149615228176117,-0.01567375287413597,0.007299491669982672,0.005883365869522095,-0.002172186970710754,-0.01160323619842529,XArbitraryZVertical,-0.1754705831315349,0.08108332791724715,0.935376355994422,0.2961530720314137,0.3762882351875305,-0.04775455221533775,-0.9252711534500122,0,0,0,-1,-1,28637.56994825,unknown,2,2024-04-09T13:02:52.315+02:00,2024-04-09T08:50:23.531+02:00,2387,1.337689,0,0,1970.191,2,0,2024-04-09T12:41:02.932+02:00,734353392.8047925,0,42.62,99.44508,1,0.85
2024-04-09T13:03:13.040+02:00,1712660591.998785,53.22969102918199,10.40021009298944,35.26184,0,1.183113,73.68775718045516,180,3.366667838661356,4.742371210366404,-9999,28658.29438325,0.3723907470703125,-0.05859375,-0.923492431640625,28658.27442625,2.517695421679135,0.3853651426599098,0.05174469901210559,0.1376308351755142,-0.02278283424675465,0.0147248413413763,0.003160864114761353,0.01001936197280884,-0.005227863788604736,XArbitraryZVertical,-0.1743968064696438,0.08291732295500952,0.9353323208755727,0.2964185394843699,0.3753944039344788,-0.05172161012887955,-0.9254209399223328,0,0,0,-1,-1,28637.56994825,unknown,2,2024-04-09T13:02:52.315+02:00,2024-04-09T08:50:23.531+02:00,2387,1.337689,0,0,1970.191,2,0,2024-04-09T12:41:02.932+02:00,734353392.8047925,0,42.62,99.44508,1,0.85
2024-04-09T13:03:13.075+02:00,1712660591.998785,53.22969102918199,10.40021009298944,35.26184,0,1.183113,73.68775718045516,180,3.366667838661356,4.742371210366404,-9999,28658.32930625,0.3802490234375,-0.0630950927734375,-0.9335174560546875,28658.27442625,2.517695421679135,0.3853651426599098,0.05174469901210559,0.1376308351755142,-0.02278283424675465,0.0147248413413763,0.003160864114761353,0.01001936197280884,-0.005227863788604736,XArbitraryZVertical,-0.1743968064696438,0.08291732295500952,0.9353323208755727,0.2964185394843699,0.3753944039344788,-0.05172161012887955,-0.9254209399223328,0,0,0,-1,-1,28637.56994825,unknown,2,2024-04-09T13:02:52.315+02:00,2024-04-09T08:50:23.531+02:00,2387,1.337689,0,0,1970.191,2,0,2024-04-09T12:41:02.932+02:00,734353392.8047925,0,42.62,99.44508,1,0.85
2024-04-09T13:03:13.110+02:00,1712660591.998785,53.22969102918199,10.40021009298944,35.26184,0,1.183113,73.68775718045516,180,3.366667838661356,4.742371210366404,-9999,28658.36423025,0.38470458984375,-0.0653076171875,-0.9341278076171875,28658.33429525,2.516302308835178,0.385148262736299,0.05835467282873721,0.07328963279724121,0.009307781234383583,0.02335492894053459,0.005878567695617676,-0.003415480256080627,-0.006460070610046387,XArbitraryZVertical,-0.1732236630005903,0.08608668150729833,0.9352540768512234,0.2964499142903361,0.37505704164505,-0.05832155793905258,-0.9251652956008911,0,0,0,-1,-1,28637.56994825,unknown,2,2024-04-09T13:02:52.315+02:00,2024-04-09T08:50:23.531+02:00,2387,1.337689,0,0,1970.191,2,0,2024-04-09T12:41:02.932+02:00,734353392.8047925,0,42.62,99.44508,1,0.85
2024-04-09T13:03:13.145+02:00,1712660591.998785,53.22969102918199,10.40021009298944,35.26184,0,1.183113,73.68775718045516,180,3.366667838661356,4.742371210366404,-9999,28658.39915325,0.37872314453125,-0.062225341796875,-0.9353485107421875,28658.39416425,2.516473383787801,0.3857992967898385,0.06010602649910651,-0.01296212431043386,0.01222932711243629,0.01810328848659992,0.00452190637588501,-0.005008872598409653,-0.006358027458190918,XArbitraryZVertical,-0.1732665860518673,0.08698424040172799,0.9352503491199451,0.2961743602592815,0.3756202757358551,-0.06006984040141106,-0.9248248934745789,0,0,0,-1,-1,28637.56994825,unknown,2,2024-04-09T13:02:52.315+02:00,2024-04-09T08:50:23.531+02:00,2387,1.337689,0,0,1970.191,2,0,2024-04-09T12:41:02.932+02:00,734353392.8047925,0,42.62,99.44508,1,0.85
2024-04-09T13:03:13.180+02:00,1712660591.998785,53.22969102918199,10.40021009298944,35.26184,0,1.183113,73.68775718045516,180,3.366667838661356,4.742371210366404,-9999,28658.43407725,0.3768310546875,-0.07330322265625,-0.9396514892578125,28658.39416425,2.516473383787801,0.3857992967898385,0.06010602649910651,-0.01296212431043386,0.01222932711243629,0.01810328848659992,0.00452190637588501,-0.005008872598409653,-0.006358027458190918,XArbitraryZVertical,-0.1732665860518673,0.08698424040172799,0.9352503491199451,0.2961743602592815,0.3756202757358551,-0.06006984040141106,-0.9248248934745789,0,0,0,-1,-1,28637.56994825,unknown,2,2024-04-09T13:02:52.315+02:00,2024-04-09T08:50:23.531+02:00,2387,1.337689,0,0,1970.191,2,0,2024-04-09T12:41:02.932+02:00,734353392.8047925,0,42.62,99.44508,1,0.85
2024-04-09T13:03:13.215+02:00,1712660592.99876,53.22969102918199,10.40021009298944,35.26184,0,1.153932,73.68775718045516,180,3.366018369762084,4.742832209472843,-9999,28658.46900025,0.384246826171875,-0.0570068359375,-0.9370880126953125,28658.45403325,2.517293796129764,0.3863556546637369,0.05844848838538969,-0.05329499021172523,0.01560047082602978,-0.01674075052142143,-0.002224624156951904,-0.0127975307404995,-0.01727938652038574,XArbitraryZVertical,-0.1738166215890698,0.08622317567465319,0.9352975668818274,0.2959252017934417,0.376171737909317,-0.05841521546244621,-0.9247066974639893,0,0,0,-1,-1,28637.56994825,unknown,2,2024-04-09T13:02:52.315+02:00,2024-04-09T08:50:23.531+02:00,2387,1.337689,0,0,1970.191,2,0,2024-04-09T12:41:02.932+02:00,734353392.8047925,0,42.62,99.44508,1,0.85
2024-04-09T13:03:13.250+02:00,1712660592.99876,53.22969102918199,10.40021009298944,35.26184,0,1.153932,73.68775718045516,180,3.366018369762084,4.742832209472843,-9999,28658.50392325,0.374359130859375,-0.06439208984375,-0.934112548828125,28658.45403325,2.517293796129764,0.3863556546637369,0.05844848838538969,-0.05329499021172523,0.01560047082602978,-0.01674075052142143,-0.002224624156951904,-0.0127975307404995,-0.01727938652038574,XArbitraryZVertical,-0.1738166215890698,0.08622317567465319,0.9352975668818274,0.2959252017934417,0.376171737909317,-0.05841521546244621,-0.9247066974639893,0,0,0,-1,-1,28637.56994825,unknown,2,2024-04-09T13:02:52.315+02:00,2024-04-09T08:50:23.531+02:00,2387,1.337689,0,0,1970.191,2,0,2024-04-09T12:41:02.932+02:00,734353392.8047925,0,42.62,99.44508,1,0.85
2024-04-09T13:03:13.285+02:00,1712660592.99876,53.22969102918199,10.40021009298944,35.26184,0,1.153932,73.68775718045516,180,3.366018369762084,4.742832209472843,-9999,28658.53884725,0.37725830078125,-0.06610107421875,-0.9392852783203125,28658.51390225,2.516980130416449,0.3860833972362356,0.05742062852883788,-0.008040469139814377,-0.001142539083957672,-0.00465715117752552,-0.001583307981491089,-0.007002990692853928,-0.00924837589263916,XArbitraryZVertical,-0.1738334066982452,0.08573122338724995,0.9352584182653874,0.2961818986744021,0.3759423792362213,-0.05738908052444458,-0.9248642325401306,0,0,0,-1,-1,28637.56994825,unknown,2,2024-04-09T13:02:52.315+02:00,2024-04-09T08:50:23.531+02:00,2387,1.337689,0,0,1970.191,2,0,2024-04-09T12:41:02.932+02:00,734353392.8047925,0,42.62,99.44508,1,0.85
2024-04-09T13:03:13.320+02:00,1712660592.99876,53.22969102918199,10.40021009298944,35.26184,0,1.153932,73.68775718045516,180,3.366018369762084,4.742832209472843,-9999,28658.57377025,0.3761444091796875,-0.0666351318359375,-0.9366302490234375,28658.51390225,2.516980130416449,0.3860833972362356,0.05742062852883788,-0.008040469139814377,-0.001142539083957672,-0.00465715117752552,-0.001583307981491089,-0.007002990692853928,-0.00924837589263916,XArbitraryZVertical,-0.1738334066982452,0.08573122338724995,0.9352584182653874,0.2961818986744021,0.3759423792362213,-0.05738908052444458,-0.9248642325401306,0,0,0,-1,-1,28637.56994825,unknown,2,2024-04-09T13:02:52.315+02:00,2024-04-09T08:50:23.531+02:00,2387,1.337689,0,0,1970.191,2,0,2024-04-09T12:41:02.932+02:00,734353392.8047925,0,42.62,99.44508,1,0.85
2024-04-09T13:03:13.355+02:00,1712660592.99876,53.22969102918199,10.40021009298944,35.26184,0,1.153932,73.68775718045516,180,3.366018369762084,4.742832209472843,-9999,28658.60869425,0.3876495361328125,-0.072265625,-0.942535400390625,28658.57377025,2.517508607665091,0.3856215928873897,0.05721794261599287,-0.04456869885325432,0.004013285040855408,0.01016988418996334,0.001692891120910645,-0.008441302925348282,-0.008774161338806152,XArbitraryZVertical,-0.1736711185781832,0.08552250195770976,0.9353735701537752,0.2959739362189598,0.3755196034908295,-0.05718672648072243,-0.9250484704971313,0,0,0,-1,-1,28637.56994825,unknown,2,2024-04-09T13:02:52.315+02:00,2024-04-09T08:50:23.531+02:00,2387,1.337689,0,0,1970.191,2,0,2024-04-09T12:41:02.932+02:00,734353392.8047925,0,42.62,99.44508,1,0.85
2024-04-09T13:03:13.390+02:00,1712660592.99876,53.22969102918199,10.40021009298944,35.26184,0,1.153932,73.68775718045516,180,3.366018369762084,4.742832209472843,-9999,28658.64361725,0.378387451171875,-0.0628204345703125,-0.943267822265625,28658.63363925,2.519162830278429,0.3855749462117122,0.05279157672165419,-0.1286645829677582,0.003117891028523445,-0.01747753098607063,0.01394307613372803,-0.0298134870827198,-0.01721340417861938,XArbitraryZVertical,-0.1743959825418642,0.08330846010922256,0.9355491544213979,0.2956239542731588,0.3755679726600647,-0.0527670606970787,-0.9252914786338806,0,0,0,-1,-1,28637.56994825,unknown,2,2024-04-09T13:02:52.315+02:00,2024-04-09T08:50:23.531+02:00,2387,1.337689,0,0,1970.191,2,0,2024-04-09T12:41:02.932+02:00,734353392.8047925,0,42.62,99.44508,1,0.85
2024-04-09T13:03:13.425+02:00,1712660592.99876,53.22969102918199,10.40021009298944,35.26184,0,1.153932,73.68775718045516,180,3.366018369762084,4.742832209472843,-9999,28658.67854125,0.37945556640625,-0.04913330078125,-0.932403564453125,28658.63363925,2.519162830278429,0.3855749462117122,0.05279157672165419,-0.1286645829677582,0.003117891028523445,-0.01747753098607063,0.01394307613372803,-0.0298134870827198,-0.01721340417861938,XArbitraryZVertical,-0.1743959825418642,0.08330846010922256,0.9355491544213979,0.2956239542731588,0.3755679726600647,-0.0527670606970787,-0.9252914786338806,0,0,0,-1,-1,28637.56994825,unknown,2,2024-04-09T13:02:52.315+02:00,2024-04-09T08:50:23.531+02:00,2387,1.337689,0,0,1970.191,2,0,2024-04-09T12:41:02.932+02:00,734353392.8047925,0,42.62,99.44508,1,0.85
2024-04-09T13:03:13.460+02:00,1712660592.99876,53.22969102918199,10.40021009298944,35.26184,0,1.153932,73.68775718045516,180,3.366018369762084,4.742832209472843,-9999,28658.71346425,0.378326416015625,-0.065765380859375,-0.9296875,28658.69350825,2.521187446211787,0.3849171534972969,0.05170221427296398,0.04504059255123138,-0.007156413048505783,0.0496685579419136,0.002308189868927002,0.0007758848369121552,-0.006705701351165771,XArbitraryZVertical,-0.1743381639708051,0.08252684727022487,0.9358867301025603,0.294807451058513,0.3749805986881256,-0.05167918279767036,-0.9255910515785217,0,0,0,-1,-1,28637.56994825,unknown,2,2024-04-09T13:02:52.315+02:00,2024-04-09T08:50:23.531+02:00,2387,1.337689,0,0,1970.191,2,0,2024-04-09T12:41:02.932+02:00,734353392.8047925,0,42.62,99.44508,1,0.85
2024-04-09T13:03:13.507+02:00,1712660592.99876,53.22969102918199,10.40021009298944,35.26184,0,1.153932,73.68775718045516,180,3.366018369762084,4.742832209472843,-9999,28658.74838825,0.377410888671875,-0.066650390625,-0.93572998046875,28658.69350825,2.521187446211787,0.3849171534972969,0.05170221427296398,0.04504059255123138,-0.007156413048505783,0.0496685579419136,0.002308189868927002,0.0007758848369121552,-0.006705701351165771,XArbitraryZVertical,-0.1743381639708051,0.08252684727022487,0.9358867301025603,0.294807451058513,0.3749805986881256,-0.05167918279767036,-0.9255910515785217,0,0,0,-1,-1,28637.56994825,unknown,2,2024-04-09T13:02:52.315+02:00,2024-04-09T08:50:23.531+02:00,2387,1.337689,0,0,1970.191,2,0,2024-04-09T12:41:02.932+02:00,734353392.8047925,0,42.62,99.44508,1,0.85
2024-04-09T13:03:13.530+02:00,1712660592.99876,53.22969102918199,10.40021009298944,35.26184,0,1.153932,73.68775718045516,180,3.366018369762084,4.742832209472843,-9999,28658.78331125,0.3779144287109375,-0.055511474609375,-0.9332275390625,28658.75337725,2.523470812747689,0.3855422041061722,0.05437594338064921,-0.01848077028989792,0.0274553969502449,0.05850366875529289,0.0009285211563110352,-0.01590229198336601,-0.01122200489044189,XArbitraryZVertical,-0.1743194107108859,0.08366698255900308,0.9362129470107328,0.2934586366755944,0.3755057752132416,-0.0543491505086422,-0.9252251386642456,0,0,0,-1,-1,28637.56994825,unknown,2,2024-04-09T13:02:52.315+02:00,2024-04-09T08:50:23.531+02:00,2387,1.337689,0,0,1970.191,2,0,2024-04-09T12:41:02.932+02:00,734353392.8047925,0,42.62,99.44508,1,0.85
2024-04-09T13:03:13.564+02:00,1712660592.99876,53.22969102918199,10.40021009298944,35.26184,0,1.153932,73.68775718045516,180,3.366018369762084,4.742832209472843,-9999,28658.81823525,0.3817901611328125,-0.0473480224609375,-0.9376068115234375,28658.81324625,2.527665629435355,0.3860115573189993,0.05566660040669462,-0.007607793901115656,0.006455991417169571,0.06769347190856934,-0.007230430841445923,0.005787413567304611,-0.008931159973144531,XArbitraryZVertical,-0.1745198228919782,0.08397206623823694,0.9368061393286516,0.2913515424527883,0.3759132623672485,-0.05563785508275032,-0.924983024597168,0,0,0,-1,-1,28637.56994825,unknown,2,2024-04-09T13:02:52.315+02:00,2024-04-09T08:50:23.531+02:00,2387,1.337689,0,0,1970.191,2,0,2024-04-09T12:41:02.932+02:00,734353392.8047925,0,42.62,99.44508,1,0.85
2024-04-09T13:03:13.599+02:00,1712660592.99876,53.22969102918199,10.40021009298944,35.26184,0,1.153932,73.68775718045516,180,3.366018369762084,4.742832209472843,-9999,28658.85315825,0.381072998046875,-0.0543670654296875,-0.932891845703125,28658.81324625,2.527665629435355,0.3860115573189993,0.05566660040669462,-0.007607793901115656,0.006455991417169571,0.06769347190856934,-0.007230430841445923,0.005787413567304611,-0.008931159973144531,XArbitraryZVertical,-0.1745198228919782,0.08397206623823694,0.9368061393286516,0.2913515424527883,0.3759132623672485,-0.05563785508275032,-0.924983024597168,0,0,0,-1,-1,28637.56994825,unknown,2,2024-04-09T13:02:52.315+02:00,2024-04-09T08:50:23.531+02:00,2387,1.337689,0,0,1970.191,2,0,2024-04-09T12:41:02.932+02:00,734353392.8047925,0,42.62,99.44508,1,0.85
2024-04-09T13:03:13.634+02:00,1712660592.99876,53.22969102918199,10.40021009298944,35.26184,0,1.153932,73.68775718045516,180,3.366018369762084,4.742832209472843,-9999,28658.88808225,0.373321533203125,-0.057281494140625,-0.9280242919921875,28658.87311425,2.530595107940361,0.3854631255446608,0.0585269012066886,0.009618552401661873,-0.01228959858417511,0.0318119116127491,0.001028716564178467,-0.0008173957467079163,-0.004298746585845947,XArbitraryZVertical,-0.1739561425605535,0.08497261093929537,0.937323943897367,0.2897288655495507,0.3753445446491241,-0.05849349498748779,-0.9250378608703613,0,0,0,-1,-1,28637.56994825,unknown,2,2024-04-09T13:02:52.315+02:00,2024-04-09T08:50:23.531+02:00,2387,1.337689,0,0,1970.191,2,0,2024-04-09T12:41:02.932+02:00,734353392.8047925,0,42.62,99.44508,1,0.85
2024-04-09T13:03:13.669+02:00,1712660592.99876,53.22969102918199,10.40021009298944,35.26184,0,1.153932,73.68775718045516,180,3.366018369762084,4.742832209472843,-9999,28658.92300525,0.3759613037109375,-0.03857421875,-0.9197540283203125,28658.87311425,2.530595107940361,0.3854631255446608,0.0585269012066886,0.009618552401661873,-0.01228959858417511,0.0318119116127491,0.001028716564178467,-0.0008173957467079163,-0.004298746585845947,XArbitraryZVertical,-0.1739561425605535,0.08497261093929537,0.937323943897367,0.2897288655495507,0.3753445446491241,-0.05849349498748779,-0.9250378608703613,0,0,0,-1,-1,28637.56994825,unknown,2,2024-04-09T13:02:52.315+02:00,2024-04-09T08:50:23.531+02:00,2387,1.337689,0,0,1970.191,2,0,2024-04-09T12:41:02.932+02:00,734353392.8047925,0,42.62,99.44508,1,0.85
2024-04-09T13:03:13.704+02:00,1712660592.99876,53.22969102918199,10.40021009298944,35.26184,0,1.153932,73.68775718045516,180,3.366018369762084,4.742832209472843,-9999,28658.95792925,0.367828369140625,-0.06439208984375,-0.920440673828125,28658.93298325,2.530902105076823,0.384642468091312,0.05912101893875982,0.06182427704334259,-0.02493149228394032,-0.0005755897145718336,0.001389116048812866,0.02051238715648651,0.005559146404266357,XArbitraryZVertical,-0.1734953381026024,0.08510454701313575,0.9374485595385907,0.2895630714229898,0.3745721876621246,-0.05908658355474472,-0.9253131747245789,0,0,0,-1,-1,28637.56994825,unknown,2,2024-04-09T13:02:52.315+02:00,2024-04-09T08:50:23.531+02:00,2387,1.337689,0,0,1970.191,2,0,2024-04-09T12:41:02.932+02:00,734353392.8047925,0,42.62,99.44508,1,0.85
2024-04-09T13:03:13.739+02:00,1712660592.99876,53.22969102918199,10.40021009298944,35.26184,0,1.153932,73.68775718045516,180,3.366018369762084,4.742832209472843,-9999,28658.99285225,0.3806915283203125,-0.0537261962890625,-0.9283447265625,28658.93298325,2.530902105076823,0.384642468091312,0.05912101893875982,0.06182427704334259,-0.02493149228394032,-0.0005755897145718336,0.001389116048812866,0.02051238715648651,0.005559146404266357,XArbitraryZVertical,-0.1734953381026024,0.08510454701313575,0.9374485595385907,0.2895630714229898,0.3745721876621246,-0.05908658355474472,-0.9253131747245789,0,0,0,-1,-1,28637.56994825,unknown,2,2024-04-09T13:02:52.315+02:00,2024-04-09T08:50:23.531+02:00,2387,1.337689,0,0,1970.191,2,0,2024-04-09T12:41:02.932+02:00,734353392.8047925,0,42.62,99.44508,1,0.85
2024-04-09T13:03:13.774+02:00,1712660592.99876,53.22969102918199,10.40021009298944,35.26184,0,1.153932,73.68775718045516,180,3.366018369762084,4.742832209472843,-9999,28659.02777525,0.383819580078125,-0.04638671875,-0.9327850341796875,28658.99285225,2.52963986623551,0.3851497798913272,0.05819833939994986,-0.04220491647720337,0.02025318332016468,-0.03735193982720375,-0.001130014657974243,-0.003586806356906891,-0.003629326820373535,XArbitraryZVertical,-0.1738181484167033,0.08485680750438007,0.937207635626596,0.2902211455689919,0.3750618696212769,-0.05816549062728882,-0.9251731634140015,0,0,0,-1,-1,28637.56994825,unknown,2,2024-04-09T13:02:52.315+02:00,2024-04-09T08:50:23.531+02:00,2387,1.337689,0,0,1970.191,2,0,2024-04-09T12:41:02.932+02:00,734353392.8047925,0,42.62,99.44508,1,0.85
2024-04-09T13:03:13.809+02:00,1712660592.99876,53.22969102918199,10.40021009298944,35.26184,0,1.153932,73.68775718045516,180,3.366018369762084,4.742832209472843,-9999,28659.06269925,0.3804779052734375,-0.0633544921875,-0.928985595703125,28659.05272125,2.527808775292789,0.385248805158292,0.05573255787457334,0.01209205202758312,-0.01461402419954538,-0.03524599224328995,0.008384406566619873,-0.001760862767696381,-0.006206631660461426,XArbitraryZVertical,-0.174158594276129,0.08387927142926478,0.9368945283867161,0.2913102019010379,0.3752062320709229,-0.05570371076464653,-0.9252660870552063,0,0,0,-1,-1,28637.56994825,unknown,2,2024-04-09T13:02:52.315+02:00,2024-04-09T08:50:23.531+02:00,2387,1.337689,0,0,1970.191,2,0,2024-04-09T12:41:02.932+02:00,734353392.8047925,0,42.62,99.44508,1,0.85
2024-04-09T13:03:13.844+02:00,1712660592.99876,53.22969102918199,10.40021009298944,35.26184,0,1.153932,73.68775718045516,180,3.366018369762084,4.742832209472843,-9999,28659.09762225,0.3792572021484375,-0.0697021484375,-0.9359283447265625,28659.05272125,2.527808775292789,0.385248805158292,0.05573255787457334,0.01209205202758312,-0.01461402419954538,-0.03524599224328995,0.008384406566619873,-0.001760862767696381,-0.006206631660461426,XArbitraryZVertical,-0.174158594276129,0.08387927142926478,0.9368945283867161,0.2913102019010379,0.3752062320709229,-0.05570371076464653,-0.9252660870552063,0,0,0,-1,-1,28637.56994825,unknown,2,2024-04-09T13:02:52.315+02:00,2024-04-09T08:50:23.531+02:00,2387,1.337689,0,0,1970.191,2,0,2024-04-09T12:41:02.932+02:00,734353392.8047925,0,42.62,99.44508,1,0.85
2024-04-09T13:03:13.879+02:00,1712660592.99876,53.22969102918199,10.40021009298944,35.26184,0,1.153932,73.68775718045516,180,3.366018369762084,4.742832209472843,-9999,28659.13254679167,0.374603271484375,-0.0575714111328125,-0.93170166015625,28659.11259025,2.526661180663908,0.3852369083398705,0.05407644195996739,-0.02910176664590836,0.004280513152480125,-0.003811482340097427,0.005294263362884521,-0.01301226392388344,-0.01324385404586792,XArbitraryZVertical,-0.174354903781321,0.08320443112884407,0.9367015111960485,0.2920059612372356,0.3752293884754181,-0.05405009165406227,-0.9253547787666321,0,0,0,-1,-1,28637.56994825,unknown,2,2024-04-09T13:02:52.315+02:00,2024-04-09T08:50:23.531+02:00,2387,1.337689,0,0,1970.191,2,0,2024-04-09T12:41:02.932+02:00,734353392.8047925,0,42.62,99.44508,1,0.85
2024-04-09T13:03:13.914+02:00,1712660592.99876,53.22969102918199,10.40021009298944,35.26184,0,1.153932,73.68775718045516,180,3.366018369762084,4.742832209472843,-9999,28659.16746979167,0.3777923583984375,-0.0555877685546875,-0.937652587890625,28659.11259025,2.526661180663908,0.3852369083398705,0.05407644195996739,-0.02910176664590836,0.004280513152480125,-0.003811482340097427,0.005294263362884521,-0.01301226392388344,-0.01324385404586792,XArbitraryZVertical,-0.174354903781321,0.08320443112884407,0.9367015111960485,0.2920059612372356,0.3752293884754181,-0.05405009165406227,-0.9253547787666321,0,0,0,-1,-1,28637.56994825,unknown,2,2024-04-09T13:02:52.315+02:00,2024-04-09T08:50:23.531+02:00,2387,1.337689,0,0,1970.191,2,0,2024-04-09T12:41:02.932+02:00,734353392.8047925,0,42.62,99.44508,1,0.85
2024-04-09T13:03:13.949+02:00,1712660592.99876,53.22969102918199,10.40021009298944,35.26184,0,1.153932,73.68775718045516,180,3.366018369762084,4.742832209472843,-9999,28659.20239379167,0.378204345703125,-0.0615692138671875,-0.9381256103515625,28659.17245879167,2.527679282660872,0.3852789943697522,0.0550083354543323,0.02551274001598358,-0.006422199308872223,0.02771581709384918,0.003199219703674316,0.0005982927978038788,-0.01083481311798096,XArbitraryZVertical,-0.1742764951693916,0.08355685386750843,0.9368614319050346,0.2914385831134587,0.3752492368221283,-0.05498059839010239,-0.925291895866394,0,0,0,-1,-1,28637.56994825,unknown,2,2024-04-09T13:02:52.315+02:00,2024-04-09T08:50:23.531+02:00,2387,1.337689,0,0,1970.191,2,0,2024-04-09T12:41:02.932+02:00,734353392.8047925,0,42.62,99.44508,1,0.85
2024-04-09T13:03:13.983+02:00,1712660592.99876,53.22969102918199,10.40021009298944,35.26184,0,1.153932,73.68775718045516,180,3.366018369762084,4.742832209472843,-9999,28659.23731679167,0.3701934814453125,-0.066741943359375,-0.9317779541015625,28659.23232779167,2.527967195543503,0.3849084310175495,0.05689449409270513,-0.0379137247800827,0.006454870104789734,-0.003391464240849018,0.001155585050582886,-0.006536442786455154,-0.008504748344421387,XArbitraryZVertical,-0.1738306487294563,0.08435836190442293,0.9369654536504683,0.2911395020507122,0.3748667240142822,-0.05686380341649055,-0.9253331422805786,0,0,0,-1,-1,28637.56994825,unknown,2,2024-04-09T13:02:52.315+02:00,2024-04-09T08:50:23.531+02:00,2387,1.337689,0,0,1970.191,2,0,2024-04-09T12:41:02.932+02:00,734353392.8047925,0,42.62,99.44508,1,0.85
2024-04-09T13:03:14.019+02:00,1712660592.99876,53.22969102918199,10.40021009298944,35.26184,0,1.153932,73.68775718045516,180,3.366018369762084,4.742832209472843,-9999,28659.27224079167,0.38580322265625,-0.0464019775390625,-0.9447784423828125,28659.23232779167,2.527967195543503,0.3849084310175495,0.05689449409270513,-0.0379137247800827,0.006454870104789734,-0.003391464240849018,0.001155585050582886,-0.006536442786455154,-0.008504748344421387,XArbitraryZVertical,-0.1738306487294563,0.08435836190442293,0.9369654536504683,0.2911395020507122,0.3748667240142822,-0.05686380341649055,-0.9253331422805786,0,0,0,-1,-1,28637.56994825,unknown,2,2024-04-09T13:02:52.315+02:00,2024-04-09T08:50:23.531+02:00,2387,1.337689,0,0,1970.191,2,0,2024-04-09T12:41:02.932+02:00,734353392.8047925,0,42.62,99.44508,1,0.85
2024-04-09T13:03:14.053+02:00,1712660592.99876,53.22969102918199,10.40021009298944,35.26184,0,1.153932,73.68775718045516,180,3.366018369762084,4.742832209472843,-9999,28659.30716379167,0.3797760009765625,-0.0657806396484375,-0.9352569580078125,28659.29219679167,2.52738540589099,0.3848546651203641,0.056083329909329,0.03231800720095634,-0.03002332150936127,-0.01122823357582092,0.01151832938194275,0.01140673831105232,-0.01956582069396973,XArbitraryZVertical,-0.1739032787273624,0.08402243592730953,0.9368727572013569,0.2914917097205015,0.3748341798782349,-0.05605393275618553,-0.9253957867622375,0,0,0,-1,-1,28637.56994825,unknown,2,2024-04-09T13:02:52.315+02:00,2024-04-09T08:50:23.531+02:00,2387,1.337689,0,0,1970.191,2,0,2024-04-09T12:41:02.932+02:00,734353392.8047925,0,42.62,99.44508,1,0.85
2024-04-09T13:03:14.088+02:00,1712660592.99876,53.22969102918199,10.40021009298944,35.26184,0,1.153932,73.68775718045516,180,3.366018369762084,4.742832209472843,-9999,28659.34208779167,0.368255615234375,-0.0627899169921875,-0.9296722412109375,28659.29219679167,2.52738540589099,0.3848546651203641,0.056083329909329,0.03231800720095634,-0.03002332150936127,-0.01122823357582092,0.01151832938194275,0.01140673831105232,-0.01956582069396973,XArbitraryZVertical,-0.1739032787273624,0.08402243592730953,0.9368727572013569,0.2914917097205015,0.3748341798782349,-0.05605393275618553,-0.9253957867622375,0,0,0,-1,-1,28637.56994825,unknown,2,2024-04-09T13:02:52.315+02:00,2024-04-09T08:50:23.531+02:00,2387,1.337689,0,0,1970.191,2,0,2024-04-09T12:41:02.932+02:00,734353392.8047925,0,42.62,99.44508,1,0.85
2024-04-09T13:03:14.123+02:00,1712660592.99876,53.22969102918199,10.40021009298944,35.26184,0,1.153932,73.68775718045516,180,3.366018369762084,4.742832209472843,-9999,28659.37701079167,0.3753814697265625,-0.0545654296875,-0.931793212890625,28659.35206579167,2.526985017574956,0.3840755366927384,0.05544506985043669,-0.01876865886151791,0.009667878970503807,-0.01699561253190041,-0.005870848894119263,-0.007373224943876266,-0.003951728343963623,XArbitraryZVertical,-0.1736178608789969,0.08364565318449423,0.9368718472955367,0.2917725408600048,0.3741263747215271,-0.05541666597127914,-0.9257205128669739,0,0,0,-1,-1,28637.56994825,unknown,2,2024-04-09T13:02:52.315+02:00,2024-04-09T08:50:23.531+02:00,2387,1.337689,0,0,1970.191,2,0,2024-04-09T12:41:02.932+02:00,734353392.8047925,0,42.62,99.44508,1,0.85
2024-04-09T13:03:14.158+02:00,1712660592.99876,53.22969102918199,10.40021009298944,35.26184,0,1.153932,73.68775718045516,180,3.366018369762084,4.742832209472843,-9999,28659.41193479167,0.37432861328125,-0.069976806640625,-0.9368743896484375,28659.35206579167,2.526985017574956,0.3840755366927384,0.05544506985043669,-0.01876865886151791,0.009667878970503807,-0.01699561253190041,-0.005870848894119263,-0.007373224943876266,-0.003951728343963623,XArbitraryZVertical,-0.1736178608789969,0.08364565318449423,0.9368718472955367,0.2917725408600048,0.3741263747215271,-0.05541666597127914,-0.9257205128669739,0,0,0,-1,-1,28637.56994825,unknown,2,2024-04-09T13:02:52.315+02:00,2024-04-09T08:50:23.531+02:00,2387,1.337689,0,0,1970.191,2,0,2024-04-09T12:41:02.932+02:00,734353392.8047925,0,42.62,99.44508,1,0.85
2024-04-09T13:03:14.193+02:00,1712660592.99876,53.22969102918199,10.40021009298944,35.26184,0,1.153932,73.68775718045516,180,3.366018369762084,4.742832209472843,-9999,28659.44685779167,0.377838134765625,-0.0633087158203125,-0.943023681640625,28659.41193479167,2.526277577600415,0.3842404399879516,0.05596245533913698,-0.02641414850950241,0.0181399267166853,-0.003236392047256231,-0.001282423734664917,-0.01503535732626915,-0.0109981894493103,XArbitraryZVertical,-0.1735873210206307,0.08397264378342448,0.9367624815219565,0.2920478129819502,0.3742682337760925,-0.05593324825167656,-0.9256320595741272,0,0,0,-1,-1,28637.56994825,unknown,2,2024-04-09T13:02:52.315+02:00,2024-04-09T08:50:23.531+02:00,2387,1.337689,0,0,1970.191,2,0,2024-04-09T12:41:02.932+02:00,734353392.8047925,0,42.62,99.44508,1,0.85
2024-04-09T13:03:14.228+02:00,1712660593.998734,53.22969102918199,10.40021009298944,35.26184,0,1.115276,73.68775718045516,180,3.366264887492915,4.742657244627862,-9999,28659.48178179167,0.3830718994140625,-0.0590057373046875,-0.9488677978515625,28659.47180279167,2.527029822284823,0.385174864570764,0.05228424447564981,-0.06940564513206482,-0.003902561031281948,-0.02215982414782047,0.007726758718490601,0.0008230693638324738,-0.02077692747116089,XArbitraryZVertical,-0.1746114474410289,0.08232658215189453,0.9367312074869603,0.2920064298407994,0.3752077519893646,-0.05226042494177818,-0.9254663586616516,0,0,0,-1,-1,28637.56994825,unknown,2,2024-04-09T13:02:52.315+02:00,2024-04-09T08:50:23.531+02:00,2387,1.337689,0,0,1970.191,2,0,2024-04-09T12:41:02.932+02:00,734353392.8047925,0,42.62,99.44508,1,0.85
2024-04-09T13:03:14.263+02:00,1712660593.998734,53.22969102918199,10.40021009298944,35.26184,0,1.115276,73.68775718045516,180,3.366264887492915,4.742657244627862,-9999,28659.51670479167,0.37664794921875,-0.052734375,-0.935699462890625,28659.47180279167,2.527029822284823,0.385174864570764,0.05228424447564981,-0.06940564513206482,-0.003902561031281948,-0.02215982414782047,0.007726758718490601,0.0008230693638324738,-0.02077692747116089,XArbitraryZVertical,-0.1746114474410289,0.08232658215189453,0.9367312074869603,0.2920064298407994,0.3752077519893646,-0.05226042494177818,-0.9254663586616516,0,0,0,-1,-1,28637.56994825,unknown,2,2024-04-09T13:02:52.315+02:00,2024-04-09T08:50:23.531+02:00,2387,1.337689,0,0,1970.191,2,0,2024-04-09T12:41:02.932+02:00,734353392.8047925,0,42.62,99.44508,1,0.85
2024-04-09T13:03:14.298+02:00,1712660593.998734,53.22969102918199,10.40021009298944,35.26184,0,1.115276,73.68775718045516,180,3.366264887492915,4.742657244627862,-9999,28659.55162879167,0.3788909912109375,-0.0517578125,-0.934722900390625,28659.53167179167,2.527094993714024,0.38424318905989,0.0505876017199279,-0.01922268234193325,-0.01705776154994965,-0.01085014082491398,0.002086758613586426,-0.003083851188421249,-0.006507158279418945,XArbitraryZVertical,-0.1744334731915888,0.08139267528338322,0.9367933978261447,0.2921750390832711,0.3743780553340912,-0.05056602880358696,-0.9258964061737061,0,0,0,-1,-1,28637.56994825,unknown,2,2024-04-09T13:02:52.315+02:00,2024-04-09T08:50:23.531+02:00,2387,1.337689,0,0,1970.191,2,0,2024-04-09T12:41:02.932+02:00,734353392.8047925,0,42.62,99.44508,1,0.85
2024-04-09T13:03:14.333+02:00,1712660593.998734,53.22969102918199,10.40021009298944,35.26184,0,1.115276,73.68775718045516,180,3.366264887492915,4.742657244627862,-9999,28659.58655179167,0.357940673828125,-0.0606842041015625,-0.922515869140625,28659.53167179167,2.527094993714024,0.38424318905989,0.0505876017199279,-0.01922268234193325,-0.01705776154994965,-0.01085014082491398,0.002086758613586426,-0.003083851188421249,-0.006507158279418945,XArbitraryZVertical,-0.1744334731915888,0.08139267528338322,0.9367933978261447,0.2921750390832711,0.3743780553340912,-0.05056602880358696,-0.9258964061737061,0,0,0,-1,-1,28637.56994825,unknown,2,2024-04-09T13:02:52.315+02:00,2024-04-09T08:50:23.531+02:00,2387,1.337689,0,0,1970.191,2,0,2024-04-09T12:41:02.932+02:00,734353392.8047925,0,42.62,99.44508,1,0.85
2024-04-09T13:03:14.368+02:00,1712660593.998734,53.22969102918199,10.40021009298944,35.26184,0,1.115276,73.68775718045516,180,3.366264887492915,4.742657244627862,-9999,28659.62147479167,0.38446044921875,-0.0392913818359375,-0.934295654296875,28659.59154079167,2.529493461613249,0.3849699439654537,0.04777563823799397,-0.1390988379716873,0.0402648001909256,0.03726096823811531,-0.02488312125205994,-0.02412666380405426,0.004579126834869385,XArbitraryZVertical,-0.1752934568930713,0.07997568807160146,0.9370309545647095,0.2912884682372914,0.3751027882099152,-0.04775746539235115,-0.9257521629333496,0,0,0,-1,-1,28637.56994825,unknown,2,2024-04-09T13:02:52.315+02:00,2024-04-09T08:50:23.531+02:00,2387,1.337689,0,0,1970.191,2,0,2024-04-09T12:41:02.932+02:00,734353392.8047925,0,42.62,99.44508,1,0.85
2024-04-09T13:03:14.403+02:00,1712660593.998734,53.22969102918199,10.40021009298944,35.26184,0,1.115276,73.68775718045516,180,3.366264887492915,4.742657244627862,-9999,28659.65639879167,0.395904541015625,-0.0368499755859375,-0.919769287109375,28659.65140979167,2.534913960361442,0.3895309776946838,0.04264498008106538,-0.06883923709392548,0.08224044740200043,0.0380992516875267,-0.01232865452766418,0.0130147710442543,-0.005136072635650635,XArbitraryZVertical,-0.1784101390729021,0.07776063912923756,0.9373202815258328,0.2890564214939058,0.3794093132019043,-0.04263205453753471,-0.9242461919784546,0,0,0,-1,-1,28637.56994825,unknown,2,2024-04-09T13:02:52.315+02:00,2024-04-09T08:50:23.531+02:00,2387,1.337689,0,0,1970.191,2,0,2024-04-09T12:41:02.932+02:00,734353392.8047925,0,42.62,99.44508,1,0.85
2024-04-09T13:03:14.438+02:00,1712660593.998734,53.22969102918199,10.40021009298944,35.26184,0,1.115276,73.68775718045516,180,3.366264887492915,4.742657244627862,-9999,28659.69132179167,0.3816986083984375,-0.0357208251953125,-0.9308319091796875,28659.65140979167,2.534913960361442,0.3895309776946838,0.04264498008106538,-0.06883923709392548,0.08224044740200043,0.0380992516875267,-0.01232865452766418,0.0130147710442543,-0.005136072635650635,XArbitraryZVertical,-0.1784101390729021,0.07776063912923756,0.9373202815258328,0.2890564214939058,0.3794093132019043,-0.04263205453753471,-0.9242461919784546,0,0,0,-1,-1,28637.56994825,unknown,2,2024-04-09T13:02:52.315+02:00,2024-04-09T08:50:23.531+02:00,2387,1.337689,0,0,1970.191,2,0,2024-04-09T12:41:02.932+02:00,734353392.8047925,0,42.62,99.44508,1,0.85
2024-04-09T13:03:14.476+02:00,1712660593.998734,53.22969102918199,10.40021009298944,35.26184,0,1.115276,73.68775718045516,180,3.366264887492915,4.742657244627862,-9999,28659.72624579167,0.3951873779296875,-0.0242767333984375,-0.9300689697265625,28659.71127879167,2.539238488501104,0.3931377136664118,0.03942365506502324,-0.107987217605114,0.04341652244329453,0.02491481974720955,0.02107864618301392,0.004333507269620895,-0.007868587970733643,XArbitraryZVertical,-0.1807436834175282,0.07638587073042816,0.9375571942391784,0.2871989760962496,0.3827909827232361,-0.0394134446978569,-0.9229938387870789,0,0,0,-1,-1,28637.56994825,unknown,2,2024-04-09T13:02:52.315+02:00,2024-04-09T08:50:23.531+02:00,2387,1.337689,0,0,1970.191,2,0,2024-04-09T12:41:02.932+02:00,734353392.8047925,0,42.62,99.44508,1,0.85
2024-04-09T13:03:14.513+02:00,1712660593.998734,53.22969102918199,10.40021009298944,35.26184,0,1.115276,73.68775718045516,180,3.366264887492915,4.742657244627862,-9999,28659.76116879167,0.38861083984375,-0.041107177734375,-0.926483154296875,28659.71127879167,2.539238488501104,0.3931377136664118,0.03942365506502324,-0.107987217605114,0.04341652244329453,0.02491481974720955,0.02107864618301392,0.004333507269620895,-0.007868587970733643,XArbitraryZVertical,-0.1807436834175282,0.07638587073042816,0.9375571942391784,0.2871989760962496,0.3827909827232361,-0.0394134446978569,-0.9229938387870789,0,0,0,-1,-1,28637.56994825,unknown,2,2024-04-09T13:02:52.315+02:00,2024-04-09T08:50:23.531+02:00,2387,1.337689,0,0,1970.191,2,0,2024-04-09T12:41:02.932+02:00,734353392.8047925,0,42.62,99.44508,1,0.85
2024-04-09T13:03:14.543+02:00,1712660593.998734,53.22969102918199,10.40021009298944,35.26184,0,1.115276,73.68775718045516,180,3.366264887492915,4.742657244627862,-9999,28659.79609279167,0.406951904296875,-0.0325164794921875,-0.938934326171875,28659.77114679167,2.540950363943531,0.3936403460537342,0.0376553226017826,-0.01466974336653948,0.02196744084358215,-0.008995706215500832,0.005329817533493042,-0.003460735082626343,-0.003618896007537842,XArbitraryZVertical,-0.1813042952400042,0.07547596868724453,0.9377221383899761,0.2865474005053171,0.3832809925079346,-0.03764642402529716,-0.9228642582893372,0,0,0,-1,-1,28637.56994825,unknown,2,2024-04-09T13:02:52.315+02:00,2024-04-09T08:50:23.531+02:00,2387,1.337689,0,0,1970.191,2,0,2024-04-09T12:41:02.932+02:00,734353392.8047925,0,42.62,99.44508,1,0.85
2024-04-09T13:03:14.578+02:00,1712660593.998734,53.22969102918199,10.40021009298944,35.26184,0,1.115276,73.68775718045516,180,3.366264887492915,4.742657244627862,-9999,28659.83101579167,0.382171630859375,-0.048492431640625,-0.9360809326171875,28659.77114679167,2.540950363943531,0.3936403460537342,0.0376553226017826,-0.01466974336653948,0.02196744084358215,-0.008995706215500832,0.005329817533493042,-0.003460735082626343,-0.003618896007537842,XArbitraryZVertical,-0.1813042952400042,0.07547596868724453,0.9377221383899761,0.2865474005053171,0.3832809925079346,-0.03764642402529716,-0.9228642582893372,0,0,0,-1,-1,28637.56994825,unknown,2,2024-04-09T13:02:52.315+02:00,2024-04-09T08:50:23.531+02:00,2387,1.337689,0,0,1970.191,2,0,2024-04-09T12:41:02.932+02:00,734353392.8047925,0,42.62,99.44508,1,0.85
2024-04-09T13:03:14.613+02:00,1712660593.998734,53.22969102918199,10.40021009298944,35.26184,0,1.115276,73.68775718045516,180,3.366264887492915,4.742657244627862,-9999,28659.86593979167,0.3859710693359375,-0.0427093505859375,-0.944915771484375,28659.83101579167,2.541858816706431,0.3941646446099588,0.03725207182352794,-0.01947910152375698,-0.009821360930800438,0.02594766765832901,0.005969375371932983,-0.004916556179523468,-0.009863793849945068,XArbitraryZVertical,-0.1816435373879126,0.07527996011775384,0.9377964067626582,0.286140363595763,0.3837705850601196,-0.03724345564842224,-0.9226770997047424,0,0,0,-1,-1,28637.56994825,unknown,2,2024-04-09T13:02:52.315+02:00,2024-04-09T08:50:23.531+02:00,2387,1.337689,0,0,1970.191,2,0,2024-04-09T12:41:02.932+02:00,734353392.8047925,0,42.62,99.44508,1,0.85
2024-04-09T13:03:14.647+02:00,1712660593.998734,53.22969102918199,10.40021009298944,35.26184,0,1.115276,73.68775718045516,180,3.366264887492915,4.742657244627862,-9999,28659.90086279167,0.3786468505859375,-0.0316314697265625,-0.927764892578125,28659.89088479167,2.544271288302113,0.3945539056348708,0.03503747948262127,-0.02858546935021877,0.001953216269612312,0.02356136217713356,2.527236938476562e-05,0.003749813884496689,-0.01618021726608276,XArbitraryZVertical,-0.1822399799246997,0.07407984365370293,0.9380604181876504,0.2852075246292213,0.3841604888439178,-0.0350303128361702,-0.9226015210151672,0,0,0,-1,-1,28637.56994825,unknown,2,2024-04-09T13:02:52.315+02:00,2024-04-09T08:50:23.531+02:00,2387,1.337689,0,0,1970.191,2,0,2024-04-09T12:41:02.932+02:00,734353392.8047925,0,42.62,99.44508,1,0.85
2024-04-09T13:03:14.682+02:00,1712660593.998734,53.22969102918199,10.40021009298944,35.26184,0,1.115276,73.68775718045516,180,3.366264887492915,4.742657244627862,-9999,28659.93578679167,0.3846588134765625,-0.0370941162109375,-0.935516357421875,28659.89088479167,2.544271288302113,0.3945539056348708,0.03503747948262127,-0.02858546935021877,0.001953216269612312,0.02356136217713356,2.527236938476562e-05,0.003749813884496689,-0.01618021726608276,XArbitraryZVertical,-0.1822399799246997,0.07407984365370293,0.9380604181876504,0.2852075246292213,0.3841604888439178,-0.0350303128361702,-0.9226015210151672,0,0,0,-1,-1,28637.56994825,unknown,2,2024-04-09T13:02:52.315+02:00,2024-04-09T08:50:23.531+02:00,2387,1.337689,0,0,1970.191,2,0,2024-04-09T12:41:02.932+02:00,734353392.8047925,0,42.62,99.44508,1,0.85
2024-04-09T13:03:14.717+02:00,1712660593.998734,53.22969102918199,10.40021009298944,35.26184,0,1.115276,73.68775718045516,180,3.366264887492915,4.742657244627862,-9999,28659.97070979167,0.3874969482421875,-0.03826904296875,-0.9294891357421875,28659.95075379167,2.544854908838789,0.3945762471714584,0.03529445681820915,0.001862140372395515,-0.02751586213707924,0.003723208792507648,0.005135089159011841,-0.001822222024202347,-0.0142134428024292,XArbitraryZVertical,-0.1822346094615629,0.07415012518124599,0.9381468704367891,0.2849082468596302,0.3841776251792908,-0.03528713062405586,-0.922584593296051,0,0,0,-1,-1,28637.56994825,unknown,2,2024-04-09T13:02:52.315+02:00,2024-04-09T08:50:23.531+02:00,2387,1.337689,0,0,1970.191,2,0,2024-04-09T12:41:02.932+02:00,734353392.8047925,0,42.62,99.44508,1,0.85
2024-04-09T13:03:14.752+02:00,1712660593.998734,53.22969102918199,10.40021009298944,35.26184,0,1.115276,73.68775718045516,180,3.366264887492915,4.742657244627862,-9999,28660.00563379167,0.378509521484375,-0.03790283203125,-0.925018310546875,28659.95075379167,2.544854908838789,0.3945762471714584,0.03529445681820915,0.001862140372395515,-0.02751586213707924,0.003723208792507648,0.005135089159011841,-0.001822222024202347,-0.0142134428024292,XArbitraryZVertical,-0.1822346094615629,0.07415012518124599,0.9381468704367891,0.2849082468596302,0.3841776251792908,-0.03528713062405586,-0.922584593296051,0,0,0,-1,-1,28637.56994825,unknown,2,2024-04-09T13:02:52.315+02:00,2024-04-09T08:50:23.531+02:00,2387,1.337689,0,0,1970.191,2,0,2024-04-09T12:41:02.932+02:00,734353392.8047925,0,42.62,99.44508,1,0.85
2024-04-09T13:03:14.787+02:00,1712660593.998734,53.22969102918199,10.40021009298944,35.26184,0,1.115276,73.68775718045516,180,3.366264887492915,4.742657244627862,-9999,28660.04055679167,0.3795928955078125,-0.044586181640625,-0.924896240234375,28660.01062279167,2.544835541988361,0.3931191587052962,0.03532779885111197,-0.006684787105768919,0.01204689964652061,-0.00605158181861043,-0.001133888959884644,-0.001331139355897903,-0.004897236824035645,XArbitraryZVertical,-0.1815454964360304,0.07395990457823924,0.9382773355516868,0.2849681089000758,0.3828324675559998,-0.03532044962048531,-0.9231423139572144,0,0,0,-1,-1,28637.56994825,unknown,2,2024-04-09T13:02:52.315+02:00,2024-04-09T08:50:23.531+02:00,2387,1.337689,0,0,1970.191,2,0,2024-04-09T12:41:02.932+02:00,734353392.8047925,0,42.62,99.44508,1,0.85
2024-04-09T13:03:14.822+02:00,1712660593.998734,53.22969102918199,10.40021009298944,35.26184,0,1.115276,73.68775718045516,180,3.366264887492915,4.742657244627862,-9999,28660.07548079167,0.386383056640625,-0.0363311767578125,-0.935821533203125,28660.07049179167,2.545077673467719,0.3942188772664946,0.03502776975232058,-0.031117869541049,0.04166673123836517,-0.006860345602035522,0.001890659332275391,-0.005094729363918304,-0.009779870510101318,XArbitraryZVertical,-0.1821140903195955,0.07395410039454263,0.9382056461668038,0.2848425994295681,0.3838514983654022,-0.0350206084549427,-0.9227305054664612,0,0,0,-1,-1,28637.56994825,unknown,2,2024-04-09T13:02:52.315+02:00,2024-04-09T08:50:23.531+02:00,2387,1.337689,0,0,1970.191,2,0,2024-04-09T12:41:02.932+02:00,734353392.8047925,0,42.62,99.44508,1,0.85
2024-04-09T13:03:14.857+02:00,1712660593.998734,53.22969102918199,10.40021009298944,35.26184,0,1.115276,73.68775718045516,180,3.366264887492915,4.742657244627862,-9999,28660.11040379167,0.391998291015625,-0.0259857177734375,-0.9397125244140625,28660.07049179167,2.545077673467719,0.3942188772664946,0.03502776975232058,-0.031117869541049,0.04166673123836517,-0.006860345602035522,0.001890659332275391,-0.005094729363918304,-0.009779870510101318,XArbitraryZVertical,-0.1821140903195955,0.07395410039454263,0.9382056461668038,0.2848425994295681,0.3838514983654022,-0.0350206084549427,-0.9227305054664612,0,0,0,-1,-1,28637.56994825,unknown,2,2024-04-09T13:02:52.315+02:00,2024-04-09T08:50:23.531+02:00,2387,1.337689,0,0,1970.191,2,0,2024-04-09T12:41:02.932+02:00,734353392.8047925,0,42.62,99.44508,1,0.85
2024-04-09T13:03:14.891+02:00,1712660593.998734,53.22969102918199,10.40021009298944,35.26184,0,1.115276,73.68775718045516,180,3.366264887492915,4.742657244627862,-9999,28660.14532775,0.372589111328125,-0.0556488037109375,-0.931304931640625,28660.13036075,2.54430161412575,0.3922101432783966,0.03678694600440428,0.07226209342479706,-0.0675085112452507,-0.00399482250213623,0.002624660730361938,0.01018260419368744,-0.01393657922744751,XArbitraryZVertical,-0.1808863555393385,0.07456177462157171,0.9383130884541773,0.2851125181542286,0.3819730579853058,-0.03677865117788315,-0.9234413504600525,0,0,0,-1,-1,28637.56994825,unknown,2,2024-04-09T13:02:52.315+02:00,2024-04-09T08:50:23.531+02:00,2387,1.337689,0,0,1970.191,2,0,2024-04-09T12:41:02.932+02:00,734353392.8047925,0,42.62,99.44508,1,0.85
2024-04-09T13:03:14.927+02:00,1712660593.998734,53.22969102918199,10.40021009298944,35.26184,0,1.115276,73.68775718045516,180,3.366264887492915,4.742657244627862,-9999,28660.18025075,0.38775634765625,-0.04205322265625,-0.933746337890625,28660.13036075,2.54430161412575,0.3922101432783966,0.03678694600440428,0.07226209342479706,-0.0675085112452507,-0.00399482250213623,0.002624660730361938,0.01018260419368744,-0.01393657922744751,XArbitraryZVertical,-0.1808863555393385,0.07456177462157171,0.9383130884541773,0.2851125181542286,0.3819730579853058,-0.03677865117788315,-0.9234413504600525,0,0,0,-1,-1,28637.56994825,unknown,2,2024-04-09T13:02:52.315+02:00,2024-04-09T08:50:23.531+02:00,2387,1.337689,0,0,1970.191,2,0,2024-04-09T12:41:02.932+02:00,734353392.8047925,0,42.62,99.44508,1,0.85
2024-04-09T13:03:14.961+02:00,1712660593.998734,53.22969102918199,10.40021009298944,35.26184,0,1.115276,73.68775718045516,180,3.366264887492915,4.742657244627862,-9999,28660.21517475,0.3785400390625,-0.0329132080078125,-0.9359130859375,28660.19022875,2.543131105951713,0.3910154579533352,0.03706009014506462,-0.003235860029235482,-0.03097313828766346,-0.02819816395640373,0.006890594959259033,-0.005001593381166458,-0.009858667850494385,XArbitraryZVertical,-0.1802422979546602,0.07462482732652991,0.9382594123187604,0.2856801291089038,0.3808657228946686,-0.03705160692334175,-0.9238876700401306,0,0,0,-1,-1,28637.56994825,unknown,2,2024-04-09T13:02:52.315+02:00,2024-04-09T08:50:23.531+02:00,2387,1.337689,0,0,1970.191,2,0,2024-04-09T12:41:02.932+02:00,734353392.8047925,0,42.62,99.44508,1,0.85
2024-04-09T13:03:15.008+02:00,1712660593.998734,53.22969102918199,10.40021009298944,35.26184,0,1.115276,73.68775718045516,180,3.366264887492915,4.742657244627862,-9999,28660.25009775,0.3780975341796875,-0.0390472412109375,-0.92755126953125,28660.19022875,2.543131105951713,0.3910154579533352,0.03706009014506462,-0.003235860029235482,-0.03097313828766346,-0.02819816395640373,0.006890594959259033,-0.005001593381166458,-0.009858667850494385,XArbitraryZVertical,-0.1802422979546602,0.07462482732652991,0.9382594123187604,0.2856801291089038,0.3808657228946686,-0.03705160692334175,-0.9238876700401306,0,0,0,-1,-1,28637.56994825,unknown,2,2024-04-09T13:02:52.315+02:00,2024-04-09T08:50:23.531+02:00,2387,1.337689,0,0,1970.191,2,0,2024-04-09T12:41:02.932+02:00,734353392.8047925,0,42.62,99.44508,1,0.85
2024-04-09T13:03:15.031+02:00,1712660593.998734,53.22969102918199,10.40021009298944,35.26184,0,1.115276,73.68775718045516,180,3.366264887492915,4.742657244627862,-9999,28660.28502175,0.377105712890625,-0.0420684814453125,-0.9375457763671875,28660.25009775,2.540179123571322,0.387964299433428,0.03924185980648122,0.06366021931171417,-0.03999632596969604,-0.03141233325004578,0.002250701189041138,-0.002668820321559906,-0.007984399795532227,XArbitraryZVertical,-0.1783801712401558,0.07547377332795797,0.9381532301242308,0.2869717490410691,0.378013551235199,-0.039231788367033,-0.924968421459198,0,0,0,-1,-1,28637.56994825,unknown,2,2024-04-09T13:02:52.315+02:00,2024-04-09T08:50:23.531+02:00,2387,1.337689,0,0,1970.191,2,0,2024-04-09T12:41:02.932+02:00,734353392.8047925,0,42.62,99.44508,1,0.85
2024-04-09T13:03:15.066+02:00,1712660593.998734,53.22969102918199,10.40021009298944,35.26184,0,1.115276,73.68775718045516,180,3.366264887492915,4.742657244627862,-9999,28660.31994475,0.3798370361328125,-0.042633056640625,-0.9295654296875,28660.30996675,2.539019886065402,0.3874149290313585,0.03968826924057442,0.01945085451006889,-0.03981462121009827,-0.01140305120497942,0.01556766033172607,0.005986463278532028,-0.01282858848571777,XArbitraryZVertical,-0.1780129368813368,0.07570704682556206,0.9380443370578216,0.2874939430042696,0.3774986863136292,-0.03967785090208054,-0.9251596927642822,0,0,0,-1,-1,28637.56994825,unknown,2,2024-04-09T13:02:52.315+02:00,2024-04-09T08:50:23.531+02:00,2387,1.337689,0,0,1970.191,2,0,2024-04-09T12:41:02.932+02:00,734353392.8047925,0,42.62,99.44508,1,0.85
2024-04-09T13:03:15.101+02:00,1712660593.998734,53.22969102918199,10.40021009298944,35.26184,0,1.115276,73.68775718045516,180,3.366264887492915,4.742657244627862,-9999,28660.35486875,0.3806915283203125,-0.0402679443359375,-0.933319091796875,28660.30996675,2.539019886065402,0.3874149290313585,0.03968826924057442,0.01945085451006889,-0.03981462121009827,-0.01140305120497942,0.01556766033172607,0.005986463278532028,-0.01282858848571777,XArbitraryZVertical,-0.1780129368813368,0.07570704682556206,0.9380443370578216,0.2874939430042696,0.3774986863136292,-0.03967785090208054,-0.9251596927642822,0,0,0,-1,-1,28637.56994825,unknown,2,2024-04-09T13:02:52.315+02:00,2024-04-09T08:50:23.531+02:00,2387,1.337689,0,0,1970.191,2,0,2024-04-09T12:41:02.932+02:00,734353392.8047925,0,42.62,99.44508,1,0.85
2024-04-09T13:03:15.136+02:00,1712660593.998734,53.22969102918199,10.40021009298944,35.26184,0,1.115276,73.68775718045516,180,3.366264887492915,4.742657244627862,-9999,28660.38979175,0.3811187744140625,-0.039825439453125,-0.92486572265625,28660.36983575,2.536928639170589,0.3846869484540309,0.04045501086007659,-0.0009811390191316605,0.01512644812464714,-0.004562874790281057,0.01013931632041931,0.00304470956325531,-0.004247069358825684,XArbitraryZVertical,-0.1765410211893174,0.07585831712699732,0.9379996518755587,0.2885056756114122,0.3749619424343109,-0.04044397547841072,-0.9261575937271118,0,0,0,-1,-1,28637.56994825,unknown,2,2024-04-09T13:02:52.315+02:00,2024-04-09T08:50:23.531+02:00,2387,1.337689,0,0,1970.191,2,0,2024-04-09T12:41:02.932+02:00,734353392.8047925,0,42.62,99.44508,1,0.85
2024-04-09T13:03:15.171+02:00,1712660593.998734,53.22969102918199,10.40021009298944,35.26184,0,1.115276,73.68775718045516,180,3.366264887492915,4.742657244627862,-9999,28660.42471575,0.3792266845703125,-0.045684814453125,-0.9325714111328125,28660.36983575,2.536928639170589,0.3846869484540309,0.04045501086007659,-0.0009811390191316605,0.01512644812464714,-0.004562874790281057,0.01013931632041931,0.00304470956325531,-0.004247069358825684,XArbitraryZVertical,-0.1765410211893174,0.07585831712699732,0.9379996518755587,0.2885056756114122,0.3749619424343109,-0.04044397547841072,-0.9261575937271118,0,0,0,-1,-1,28637.56994825,unknown,2,2024-04-09T13:02:52.315+02:00,2024-04-09T08:50:23.531+02:00,2387,1.337689,0,0,1970.191,2,0,2024-04-09T12:41:02.932+02:00,734353392.8047925,0,42.62,99.44508,1,0.85
2024-04-09T13:03:15.207+02:00,1712660593.998734,53.22969102918199,10.40021009298944,35.26184,0,1.115276,73.68775718045516,180,3.366264887492915,4.742657244627862,-9999,28660.45963875,0.382171630859375,-0.0441741943359375,-0.9387054443359375,28660.42970475,2.536880751495051,0.3863008707332263,0.0391778433717321,-0.01777094975113869,0.02794652245938778,0.006185148842632771,0.004795968532562256,-0.007905516773462296,-0.006912052631378174,XArbitraryZVertical,-0.1774849849115819,0.0754979147944649,0.9378253694182616,0.2885875048601666,0.3764753639698029,-0.03916782140731812,-0.9255982637405396,0,0,0,-1,-1,28637.56994825,unknown,2,2024-04-09T13:02:52.315+02:00,2024-04-09T08:50:23.531+02:00,2387,1.337689,0,0,1970.191,2,0,2024-04-09T12:41:02.932+02:00,734353392.8047925,0,42.62,99.44508,1,0.85
2024-04-09T13:03:15.241+02:00,1712660594.99871,53.22969102918199,10.40021009298944,35.26184,0,1.117266,73.68775718045516,180,3.366611787019995,4.742411001620049,-9999,28660.49456275,0.3790130615234375,-0.03155517578125,-0.93804931640625,28660.48957375,2.538060274623508,0.3872424492400006,0.03786872647400634,-0.02895249798893929,0.01383683085441589,0.01912598125636578,0.007445573806762695,0.005465291440486908,-0.01605510711669922,XArbitraryZVertical,-0.1781642556281388,0.07491635331736585,0.9378860583974195,0.288122693411889,0.3773657381534576,-0.03785967454314232,-0.925290048122406,0,0,0,-1,-1,28637.56994825,unknown,2,2024-04-09T13:02:52.315+02:00,2024-04-09T08:50:23.531+02:00,2387,1.337689,0,0,1970.191,2,0,2024-04-09T12:41:02.932+02:00,734353392.8047925,0,42.62,99.44508,1,0.85
2024-04-09T13:03:15.276+02:00,1712660594.99871,53.22969102918199,10.40021009298944,35.26184,0,1.117266,73.68775718045516,180,3.366611787019995,4.742411001620049,-9999,28660.52948575,0.3748321533203125,-0.042633056640625,-0.934844970703125,28660.48957375,2.538060274623508,0.3872424492400006,0.03786872647400634,-0.02895249798893929,0.01383683085441589,0.01912598125636578,0.007445573806762695,0.005465291440486908,-0.01605510711669922,XArbitraryZVertical,-0.1781642556281388,0.07491635331736585,0.9378860583974195,0.288122693411889,0.3773657381534576,-0.03785967454314232,-0.925290048122406,0,0,0,-1,-1,28637.56994825,unknown,2,2024-04-09T13:02:52.315+02:00,2024-04-09T08:50:23.531+02:00,2387,1.337689,0,0,1970.191,2,0,2024-04-09T12:41:02.932+02:00,734353392.8047925,0,42.62,99.44508,1,0.85
2024-04-09T13:03:15.311+02:00,1712660594.99871,53.22969102918199,10.40021009298944,35.26184,0,1.117266,73.68775718045516,180,3.366611787019995,4.742411001620049,-9999,28660.56440975,0.380462646484375,-0.0424652099609375,-0.937225341796875,28660.54944175,2.539409064742798,0.3878908633054087,0.03859621201215238,-0.002590398769825697,0.002777978777885437,0.01156724616885185,0.0001118779182434082,-0.003359761089086533,-0.01299935579299927,XArbitraryZVertical,-0.1784117465450497,0.07522979284689292,0.938036612923479,0.2873969119010306,0.3779551088809967,-0.03858663141727448,-0.9250194430351257,0,0,0,-1,-1,28637.56994825,unknown,2,2024-04-09T13:02:52.315+02:00,2024-04-09T08:50:23.531+02:00,2387,1.337689,0,0,1970.191,2,0,2024-04-09T12:41:02.932+02:00,734353392.8047925,0,42.62,99.44508,1,0.85
2024-04-09T13:03:15.345+02:00,1712660594.99871,53.22969102918199,10.40021009298944,35.26184,0,1.117266,73.68775718045516,180,3.366611787019995,4.742411001620049,-9999,28660.59933275,0.378662109375,-0.0390625,-0.9281158447265625,28660.54944175,2.539409064742798,0.3878908633054087,0.03859621201215238,-0.002590398769825697,0.002777978777885437,0.01156724616885185,0.0001118779182434082,-0.003359761089086533,-0.01299935579299927,XArbitraryZVertical,-0.1784117465450497,0.07522979284689292,0.938036612923479,0.2873969119010306,0.3779551088809967,-0.03858663141727448,-0.9250194430351257,0,0,0,-1,-1,28637.56994825,unknown,2,2024-04-09T13:02:52.315+02:00,2024-04-09T08:50:23.531+02:00,2387,1.337689,0,0,1970.191,2,0,2024-04-09T12:41:02.932+02:00,734353392.8047925,0,42.62,99.44508,1,0.85
2024-04-09T13:03:15.380+02:00,1712660594.99871,53.22969102918199,10.40021009298944,35.26184,0,1.117266,73.68775718045516,180,3.366611787019995,4.742411001620049,-9999,28660.63425675,0.3759307861328125,-0.0412750244140625,-0.932861328125,28660.60931075,2.539430145571179,0.3875270157019903,0.03789351612888904,-0.007275697775185108,-0.01405544579029083,-0.01391863636672497,0.001033365726470947,-0.00117802619934082,-0.002934038639068604,XArbitraryZVertical,-0.1783453478943945,0.074846808028064,0.9380583091719668,0.2874672467470801,0.3776286840438843,-0.03788444772362709,-0.9251818060874939,0,0,0,-1,-1,28637.56994825,unknown,2,2024-04-09T13:02:52.315+02:00,2024-04-09T08:50:23.531+02:00,2387,1.337689,0,0,1970.191,2,0,2024-04-09T12:41:02.932+02:00,734353395.3587478,0,42.73,99.44545,1,0.85
2024-04-09T13:03:15.415+02:00,1712660594.99871,53.22969102918199,10.40021009298944,35.26184,0,1.117266,73.68775718045516,180,3.366611787019995,4.742411001620049,-9999,28660.66917975,0.374542236328125,-0.0429840087890625,-0.929779052734375,28660.60931075,2.539430145571179,0.3875270157019903,0.03789351612888904,-0.007275697775185108,-0.01405544579029083,-0.01391863636672497,0.001033365726470947,-0.00117802619934082,-0.002934038639068604,XArbitraryZVertical,-0.1783453478943945,0.074846808028064,0.9380583091719668,0.2874672467470801,0.3776286840438843,-0.03788444772362709,-0.9251818060874939,0,0,0,-1,-1,28637.56994825,unknown,2,2024-04-09T13:02:52.315+02:00,2024-04-09T08:50:23.531+02:00,2387,1.337689,0,0,1970.191,2,0,2024-04-09T12:41:02.932+02:00,734353395.3587478,0,42.73,99.44545,1,0.85
2024-04-09T13:03:15.450+02:00,1712660594.99871,53.22969102918199,10.40021009298944,35.26184,0,1.117266,73.68775718045516,180,3.366611787019995,4.742411001620049,-9999,28660.70410375,0.3813018798828125,-0.0355072021484375,-0.933441162109375,28660.66917975,2.539571837517054,0.38803185241304,0.03762289006055369,0.01376993209123611,0.01032838225364685,0.01197273097932339,-0.003236919641494751,-0.004576515406370163,-0.008455932140350342,XArbitraryZVertical,-0.1786272668036598,0.07478007906013798,0.9380282631739875,0.2874075225558589,0.3780995607376099,-0.03761401399970055,-0.9250004887580872,0,0,0,-1,-1,28637.56994825,unknown,2,2024-04-09T13:02:52.315+02:00,2024-04-09T08:50:23.531+02:00,2387,1.337689,0,0,1970.191,2,0,2024-04-09T12:41:02.932+02:00,734353395.3587478,0,42.73,99.44545,1,0.85
2024-04-09T13:03:15.485+02:00,1712660594.99871,53.22969102918199,10.40021009298944,35.26184,0,1.117266,73.68775718045516,180,3.366611787019995,4.742411001620049,-9999,28660.73902675,0.3801422119140625,-0.04052734375,-0.9402008056640625,28660.72904875,2.54011101186913,0.3884355503807879,0.03814135385460273,-0.01046447828412056,0.01859966479241848,0.006086422130465508,0.004026502370834351,-0.006057325750589371,-0.01950633525848389,XArbitraryZVertical,-0.178760513032546,0.07503250159496704,0.9380799276509154,0.2870904173348947,0.3784655332565308,-0.03813210502266884,-0.9248296022415161,0,0,0,-1,-1,28637.56994825,unknown,2,2024-04-09T13:02:52.315+02:00,2024-04-09T08:50:23.531+02:00,2387,1.337689,0,0,1970.191,2,0,2024-04-09T12:41:02.932+02:00,734353395.3587478,0,42.73,99.44545,1,0.85
2024-04-09T13:03:15.520+02:00,1712660594.99871,53.22969102918199,10.40021009298944,35.26184,0,1.117266,73.68775718045516,180,3.366611787019995,4.742411001620049,-9999,28660.77395075,0.384063720703125,-0.0321044921875,-0.9373016357421875,28660.72904875,2.54011101186913,0.3884355503807879,0.03814135385460273,-0.01046447828412056,0.01859966479241848,0.006086422130465508,0.004026502370834351,-0.006057325750589371,-0.01950633525848389,XArbitraryZVertical,-0.178760513032546,0.07503250159496704,0.9380799276509154,0.2870904173348947,0.3784655332565308,-0.03813210502266884,-0.9248296022415161,0,0,0,-1,-1,28637.56994825,unknown,2,2024-04-09T13:02:52.315+02:00,2024-04-09T08:50:23.531+02:00,2387,1.337689,0,0,1970.191,2,0,2024-04-09T12:41:02.932+02:00,734353395.3587478,0,42.73,99.44545,1,0.85
2024-04-09T13:03:15.555+02:00,1712660594.99871,53.22969102918199,10.40021009298944,35.26184,0,1.117266,73.68775718045516,180,3.366611787019995,4.742411001620049,-9999,28660.80887375,0.3739471435546875,-0.046539306640625,-0.930389404296875,28660.78891775,2.540070119550727,0.3880230018203271,0.03801374719784183,0.02443824522197247,-0.01441803481429815,-0.002659589052200317,0.005993157625198364,0.006571508944034576,-0.01048040390014648,XArbitraryZVertical,-0.1785842503087002,0.0749172145629588,0.9381083713512385,0.2871371341690897,0.3780857920646667,-0.03800459206104279,-0.924990177154541,0,0,0,-1,-1,28637.56994825,unknown,2,2024-04-09T13:02:52.315+02:00,2024-04-09T08:50:23.531+02:00,2387,1.337689,0,0,1970.191,2,0,2024-04-09T12:41:02.932+02:00,734353395.3587478,0,42.73,99.44545,1,0.85
2024-04-09T13:03:15.590+02:00,1712660594.99871,53.22969102918199,10.40021009298944,35.26184,0,1.117266,73.68775718045516,180,3.366611787019995,4.742411001620049,-9999,28660.84379775,0.3828582763671875,-0.0372314453125,-0.929290771484375,28660.78891775,2.540070119550727,0.3880230018203271,0.03801374719784183,0.02443824522197247,-0.01441803481429815,-0.002659589052200317,0.005993157625198364,0.006571508944034576,-0.01048040390014648,XArbitraryZVertical,-0.1785842503087002,0.0749172145629588,0.9381083713512385,0.2871371341690897,0.3780857920646667,-0.03800459206104279,-0.924990177154541,0,0,0,-1,-1,28637.56994825,unknown,2,2024-04-09T13:02:52.315+02:00,2024-04-09T08:50:23.531+02:00,2387,1.337689,0,0,1970.191,2,0,2024-04-09T12:41:02.932+02:00,734353395.3587478,0,42.73,99.44545,1,0.85
2024-04-09T13:03:15.625+02:00,1712660594.99871,53.22969102918199,10.40021009298944,35.26184,0,1.117266,73.68775718045516,180,3.366611787019995,4.742411001620049,-9999,28660.87872075,0.377471923828125,-0.0413360595703125,-0.9304962158203125,28660.84878675,2.539530833261845,0.3883194516493425,0.03798020893066377,-0.002792266197502613,-0.004976271651685238,-0.00864892452955246,0.001690149307250977,-0.0007557086646556854,-0.004976153373718262,XArbitraryZVertical,-0.1787080117834598,0.0749922711383065,0.9380037953019814,0.2873821669477207,0.3783604800701141,-0.03797107934951782,-0.9248791933059692,0,0,0,-1,-1,28637.56994825,unknown,2,2024-04-09T13:02:52.315+02:00,2024-04-09T08:50:23.531+02:00,2387,1.337689,0,0,1970.191,2,0,2024-04-09T12:41:02.932+02:00,734353395.3587478,0,42.73,99.44545,1,0.85
2024-04-09T13:03:15.660+02:00,1712660594.99871,53.22969102918199,10.40021009298944,35.26184,0,1.117266,73.68775718045516,180,3.366611787019995,4.742411001620049,-9999,28660.91364475,0.3806304931640625,-0.039306640625,-0.9338836669921875,28660.90865575,2.539013189940146,0.3877860682106831,0.03891788640783777,0.007962643168866634,0.002974329516291618,0.001113424776121974,0.003372102975845337,-0.001024167984724045,-0.008317351341247559,XArbitraryZVertical,-0.178300301939958,0.07540054512007492,0.9379953412577288,0.2875560389364423,0.3778534829616547,-0.03890806436538696,-0.9250475168228149,0,0,0,-1,-1,28637.56994825,unknown,2,2024-04-09T13:02:52.315+02:00,2024-04-09T08:50:23.531+02:00,2387,1.337689,0,0,1970.191,2,0,2024-04-09T12:41:02.932+02:00,734353395.3587478,0,42.73,99.44545,1,0.85
2024-04-09T13:03:15.695+02:00,1712660594.99871,53.22969102918199,10.40021009298944,35.26184,0,1.117266,73.68775718045516,180,3.366611787019995,4.742411001620049,-9999,28660.94856775,0.383636474609375,-0.0397796630859375,-0.9362640380859375,28660.90865575,2.539013189940146,0.3877860682106831,0.03891788640783777,0.007962643168866634,0.002974329516291618,0.001113424776121974,0.003372102975845337,-0.001024167984724045,-0.008317351341247559,XArbitraryZVertical,-0.178300301939958,0.07540054512007492,0.9379953412577288,0.2875560389364423,0.3778534829616547,-0.03890806436538696,-0.9250475168228149,0,0,0,-1,-1,28637.56994825,unknown,2,2024-04-09T13:02:52.315+02:00,2024-04-09T08:50:23.531+02:00,2387,1.337689,0,0,1970.191,2,0,2024-04-09T12:41:02.932+02:00,734353395.3587478,0,42.73,99.44545,1,0.85
2024-04-09T13:03:15.730+02:00,1712660594.99871,53.22969102918199,10.40021009298944,35.26184,0,1.117266,73.68775718045516,180,3.366611787019995,4.742411001620049,-9999,28660.98349175,0.3863677978515625,-0.0359649658203125,-0.9390869140625,28660.96852375,2.539164749503898,0.3884455236488604,0.03808061730275056,-0.02247178182005882,-0.00143019761890173,-0.01347388699650764,0.007419109344482422,0.002381131052970886,-0.008994638919830322,XArbitraryZVertical,-0.1787386326706126,0.07509008411293662,0.9379418333519371,0.2875395388104045,0.3784756064414978,-0.0380714125931263,-0.9248279333114624,0,0,0,-1,-1,28637.56994825,unknown,2,2024-04-09T13:02:52.315+02:00,2024-04-09T08:50:23.531+02:00,2387,1.337689,0,0,1970.191,2,0,2024-04-09T12:41:02.932+02:00,734353395.3587478,0,42.73,99.44545,1,0.85
2024-04-09T13:03:15.765+02:00,1712660594.99871,53.22969102918199,10.40021009298944,35.26184,0,1.117266,73.68775718045516,180,3.366611787019995,4.742411001620049,-9999,28661.01841475,0.376678466796875,-0.045379638671875,-0.92706298828125,28660.96852375,2.539164749503898,0.3884455236488604,0.03808061730275056,-0.02247178182005882,-0.00143019761890173,-0.01347388699650764,0.007419109344482422,0.002381131052970886,-0.008994638919830322,XArbitraryZVertical,-0.1787386326706126,0.07509008411293662,0.9379418333519371,0.2875395388104045,0.3784756064414978,-0.0380714125931263,-0.9248279333114624,0,0,0,-1,-1,28637.56994825,unknown,2,2024-04-09T13:02:52.315+02:00,2024-04-09T08:50:23.531+02:00,2387,1.337689,0,0,1970.191,2,0,2024-04-09T12:41:02.932+02:00,734353395.3587478,0,42.73,99.44545,1,0.85
2024-04-09T13:03:15.799+02:00,1712660594.99871,53.22969102918199,10.40021009298944,35.26184,0,1.117266,73.68775718045516,180,3.366611787019995,4.742411001620049,-9999,28661.05333875,0.3785400390625,-0.041015625,-0.9300537109375,28661.02839275,2.538831495590919,0.3879032599968769,0.0372325881668559,-0.01038529351353645,0.00231892429292202,-0.007290445733815432,-0.00130772590637207,-0.00815562903881073,-0.002000331878662109,XArbitraryZVertical,-0.1785967554941644,0.07464507748935223,0.9379256173986082,0.2877965898892331,0.3779861330986023,-0.03722398728132248,-0.9250625967979431,0,0,0,-1,-1,28637.56994825,unknown,2,2024-04-09T13:02:52.315+02:00,2024-04-09T08:50:23.531+02:00,2387,1.337689,0,0,1970.191,2,0,2024-04-09T12:41:02.932+02:00,734353395.3587478,0,42.73,99.44545,1,0.85
2024-04-09T13:03:15.835+02:00,1712660594.99871,53.22969102918199,10.40021009298944,35.26184,0,1.117266,73.68775718045516,180,3.366611787019995,4.742411001620049,-9999,28661.08826175,0.3835906982421875,-0.0377655029296875,-0.92816162109375,28661.02839275,2.538831495590919,0.3879032599968769,0.0372325881668559,-0.01038529351353645,0.00231892429292202,-0.007290445733815432,-0.00130772590637207,-0.00815562903881073,-0.002000331878662109,XArbitraryZVertical,-0.1785967554941644,0.07464507748935223,0.9379256173986082,0.2877965898892331,0.3779861330986023,-0.03722398728132248,-0.9250625967979431,0,0,0,-1,-1,28637.56994825,unknown,2,2024-04-09T13:02:52.315+02:00,2024-04-09T08:50:23.531+02:00,2387,1.337689,0,0,1970.191,2,0,2024-04-09T12:41:02.932+02:00,734353395.3587478,0,42.73,99.44545,1,0.85
2024-04-09T13:03:15.869+02:00,1712660594.99871,53.22969102918199,10.40021009298944,35.26184,0,1.117266,73.68775718045516,180,3.366611787019995,4.742411001620049,-9999,28661.12318679167,0.3909759521484375,-0.028594970703125,-0.939208984375,28661.08826175,2.539168400838244,0.3893050854200323,0.03722457744922348,-0.003960017580538988,0.03166405111551285,0.008584428578615189,-0.004175871610641479,-0.006332583725452423,-0.005079090595245361,XArbitraryZVertical,-0.1792679084122023,0.0748128334476256,0.9378484725967244,0.2875869497566025,0.3792826533317566,-0.03721598163247108,-0.9245321154594421,0,0,0,-1,-1,28637.56994825,unknown,2,2024-04-09T13:02:52.315+02:00,2024-04-09T08:50:23.531+02:00,2387,1.337689,0,0,1970.191,2,0,2024-04-09T12:41:02.932+02:00,734353395.3587478,0,42.73,99.44545,1,0.85
2024-04-09T13:03:15.904+02:00,1712660594.99871,53.22969102918199,10.40021009298944,35.26184,0,1.117266,73.68775718045516,180,3.366611787019995,4.742411001620049,-9999,28661.15810979167,0.3828887939453125,-0.0408935546875,-0.9417266845703125,28661.14813179167,2.539666669645632,0.3897449117918825,0.03968690265403484,0.03456433862447739,-0.003563998267054558,0.02169007249176502,0.001801162958145142,0.003681022673845291,-0.01461094617843628,XArbitraryZVertical,-0.1791304322378005,0.07598335575970593,0.9379291063398482,0.2871022955554409,0.37965327501297,-0.039676483720541,-0.924277663230896,0,0,0,-1,-1,28637.56994825,unknown,2,2024-04-09T13:02:52.315+02:00,2024-04-09T08:50:23.531+02:00,2387,1.337689,0,0,1970.191,2,0,2024-04-09T12:41:02.932+02:00,734353395.3587478,0,42.73,99.44545,1,0.85
2024-04-09T13:03:15.939+02:00,1712660594.99871,53.22969102918199,10.40021009298944,35.26184,0,1.117266,73.68775718045516,180,3.366611787019995,4.742411001620049,-9999,28661.19303379167,0.381988525390625,-0.04071044921875,-0.9432220458984375,28661.14813179167,2.539666669645632,0.3897449117918825,0.03968690265403484,0.03456433862447739,-0.003563998267054558,0.02169007249176502,0.001801162958145142,0.003681022673845291,-0.01461094617843628,XArbitraryZVertical,-0.1791304322378005,0.07598335575970593,0.9379291063398482,0.2871022955554409,0.37965327501297,-0.039676483720541,-0.924277663230896,0,0,0,-1,-1,28637.56994825,unknown,2,2024-04-09T13:02:52.315+02:00,2024-04-09T08:50:23.531+02:00,2387,1.337689,0,0,1970.191,2,0,2024-04-09T12:41:02.932+02:00,734353395.3587478,0,42.73,99.44545,1,0.85
2024-04-09T13:03:15.974+02:00,1712660594.99871,53.22969102918199,10.40021009298944,35.26184,0,1.117266,73.68775718045516,180,3.366611787019995,4.742411001620049,-9999,28661.22795679167,0.38330078125,-0.042694091796875,-0.9353179931640625,28661.20800079167,2.539978822151316,0.3894817207272326,0.04025048191867647,0.008470997214317322,0.001442421227693558,0.002412933623418212,0.006890028715133667,0.001283947378396988,-0.01839232444763184,XArbitraryZVertical,-0.1789359021007804,0.07618130999163937,0.9380084063018732,0.2869122480609761,0.3794014751911163,-0.0402396135032177,-0.9243566989898682,0,0,0,-1,-1,28637.56994825,unknown,2,2024-04-09T13:02:52.315+02:00,2024-04-09T08:50:23.531+02:00,2387,1.337689,0,0,1970.191,2,0,2024-04-09T12:41:02.932+02:00,734353395.3587478,0,42.73,99.44545,1,0.85
2024-04-09T13:03:16.009+02:00,1712660594.99871,53.22969102918199,10.40021009298944,35.26184,0,1.117266,73.68775718045516,180,3.366611787019995,4.742411001620049,-9999,28661.26288079167,0.38311767578125,-0.0386505126953125,-0.9288787841796875,28661.20800079167,2.539978822151316,0.3894817207272326,0.04025048191867647,0.008470997214317322,0.001442421227693558,0.002412933623418212,0.006890028715133667,0.001283947378396988,-0.01839232444763184,XArbitraryZVertical,-0.1789359021007804,0.07618130999163937,0.9380084063018732,0.2869122480609761,0.3794014751911163,-0.0402396135032177,-0.9243566989898682,0,0,0,-1,-1,28637.56994825,unknown,2,2024-04-09T13:02:52.315+02:00,2024-04-09T08:50:23.531+02:00,2387,1.337689,0,0,1970.191,2,0,2024-04-09T12:41:02.932+02:00,734353395.3587478,0,42.73,99.44545,1,0.85
2024-04-09T13:03:16.045+02:00,1712660594.99871,53.22969102918199,10.40021009298944,35.26184,0,1.117266,73.68775718045516,180,3.366611787019995,4.742411001620049,-9999,28661.29780379167,0.3882598876953125,-0.0392913818359375,-0.9346160888671875,28661.26786979167,2.539680518844596,0.3892277761800432,0.04084354279698056,0.04234809055924416,-0.004394618794322014,0.007341531571000814,0.004021108150482178,-0.0003512613475322723,-0.004951536655426025,XArbitraryZVertical,-0.1787181091575628,0.07644900350302376,0.9379996625291311,0.2870053055751306,0.3791576027870178,-0.04083218798041344,-0.924430787563324,0,0,0,-1,-1,28637.56994825,unknown,2,2024-04-09T13:02:52.315+02:00,2024-04-09T08:50:23.531+02:00,2387,1.337689,0,0,1970.191,2,0,2024-04-09T12:41:02.932+02:00,734353395.3587478,0,42.73,99.44545,1,0.85
2024-04-09T13:03:16.079+02:00,1712660594.99871,53.22969102918199,10.40021009298944,35.26184,0,1.117266,73.68775718045516,180,3.366611787019995,4.742411001620049,-9999,28661.33272779167,0.386505126953125,-0.048248291015625,-0.9300079345703125,28661.32773879167,2.539192644149245,0.3886220477740972,0.04427199822986477,0.07408485561609268,-0.00295447651296854,0.0306682363152504,-0.001253515481948853,-0.006996713578701019,-0.007390022277832031,XArbitraryZVertical,-0.1779097795859086,0.07800939577828157,0.9380477242396286,0.2869306431815483,0.3785423040390015,-0.04425753653049469,-0.924525260925293,0,0,0,-1,-1,28637.56994825,unknown,2,2024-04-09T13:02:52.315+02:00,2024-04-09T08:50:23.531+02:00,2387,1.337689,0,0,1970.191,2,0,2024-04-09T12:41:02.932+02:00,734353395.3587478,0,42.73,99.44545,1,0.85
2024-04-09T13:03:16.114+02:00,1712660594.99871,53.22969102918199,10.40021009298944,35.26184,0,1.117266,73.68775718045516,180,3.366611787019995,4.742411001620049,-9999,28661.36765079167,0.3823089599609375,-0.049468994140625,-0.936065673828125,28661.32773879167,2.539192644149245,0.3886220477740972,0.04427199822986477,0.07408485561609268,-0.00295447651296854,0.0306682363152504,-0.001253515481948853,-0.006996713578701019,-0.007390022277832031,XArbitraryZVertical,-0.1779097795859086,0.07800939577828157,0.9380477242396286,0.2869306431815483,0.3785423040390015,-0.04425753653049469,-0.924525260925293,0,0,0,-1,-1,28637.56994825,unknown,2,2024-04-09T13:02:52.315+02:00,2024-04-09T08:50:23.531+02:00,2387,1.337689,0,0,1970.191,2,0,2024-04-09T12:41:02.932+02:00,734353395.3587478,0,42.73,99.44545,1,0.85
2024-04-09T13:03:16.149+02:00,1712660594.99871,53.22969102918199,10.40021009298944,35.26184,0,1.117266,73.68775718045516,180,3.366611787019995,4.742411001620049,-9999,28661.40257479167,0.382080078125,-0.0387725830078125,-0.9380950927734375,28661.38760779167,2.539284194551345,0.3893906151992303,0.04666931266703758,0.03860998898744583,-0.003716996870934963,0.003705213312059641,0.0005646049976348877,-0.001870553940534592,-0.01231390237808228,XArbitraryZVertical,-0.177920062055579,0.07923271961573049,0.9380355795246922,0.2866282913429168,0.3792113661766052,-0.04665237292647362,-0.9241332411766052,0,0,0,-1,-1,28637.56994825,unknown,2,2024-04-09T13:02:52.315+02:00,2024-04-09T08:50:23.531+02:00,2387,1.337689,0,0,1970.191,2,0,2024-04-09T12:41:02.932+02:00,734353395.3587478,0,42.73,99.44545,1,0.85
2024-04-09T13:03:16.184+02:00,1712660594.99871,53.22969102918199,10.40021009298944,35.26184,0,1.117266,73.68775718045516,180,3.366611787019995,4.742411001620049,-9999,28661.43749779167,0.3787689208984375,-0.04498291015625,-0.93426513671875,28661.38760779167,2.539284194551345,0.3893906151992303,0.04666931266703758,0.03860998898744583,-0.003716996870934963,0.003705213312059641,0.0005646049976348877,-0.001870553940534592,-0.01231390237808228,XArbitraryZVertical,-0.177920062055579,0.07923271961573049,0.9380355795246922,0.2866282913429168,0.3792113661766052,-0.04665237292647362,-0.9241332411766052,0,0,0,-1,-1,28637.56994825,unknown,2,2024-04-09T13:02:52.315+02:00,2024-04-09T08:50:23.531+02:00,2387,1.337689,0,0,1970.191,2,0,2024-04-09T12:41:02.932+02:00,734353395.3587478,0,42.73,99.44545,1,0.85
2024-04-09T13:03:16.219+02:00,1712660595.998684,53.22969102918199,10.40021009298944,35.26184,0,1.156876,73.68775718045516,180,3.367141497011305,4.742034918881693,-9999,28661.47242179167,0.384307861328125,-0.0766143798828125,-0.9315948486328125,28661.44747579167,2.536603966121622,0.3874938857582743,0.05181681949789435,0.1398180574178696,-0.05691502615809441,-0.01565155386924744,0.00140678882598877,0.006810747087001801,-0.00964885950088501,XArbitraryZVertical,-0.1761606058992111,0.08160458687098321,0.9379070655467708,0.2874689320152998,0.3773621320724487,-0.05179363489151001,-0.924616277217865,0,0,0,-1,-1,28637.56994825,unknown,2,2024-04-09T13:02:52.315+02:00,2024-04-09T08:50:23.531+02:00,2387,1.337689,0,0,1970.191,2,0,2024-04-09T12:41:02.932+02:00,734353395.3587478,0,42.73,99.44545,1,0.85
2024-04-09T13:03:16.254+02:00,1712660595.998684,53.22969102918199,10.40021009298944,35.26184,0,1.156876,73.68775718045516,180,3.367141497011305,4.742034918881693,-9999,28661.50734479167,0.3913116455078125,-0.043609619140625,-0.9339447021484375,28661.44747579167,2.536603966121622,0.3874938857582743,0.05181681949789435,0.1398180574178696,-0.05691502615809441,-0.01565155386924744,0.00140678882598877,0.006810747087001801,-0.00964885950088501,XArbitraryZVertical,-0.1761606058992111,0.08160458687098321,0.9379070655467708,0.2874689320152998,0.3773621320724487,-0.05179363489151001,-0.924616277217865,0,0,0,-1,-1,28637.56994825,unknown,2,2024-04-09T13:02:52.315+02:00,2024-04-09T08:50:23.531+02:00,2387,1.337689,0,0,1970.191,2,0,2024-04-09T12:41:02.932+02:00,734353395.3587478,0,42.73,99.44545,1,0.85
2024-04-09T13:03:16.288+02:00,1712660595.998684,53.22969102918199,10.40021009298944,35.26184,0,1.156876,73.68775718045516,180,3.367141497011305,4.742034918881693,-9999,28661.54226879167,0.382110595703125,-0.06256103515625,-0.9230499267578125,28661.50734479167,2.535865609268711,0.3881692827427087,0.05453833241312084,0.01115333288908005,0.02032130211591721,0.01561901718378067,0.008512288331985474,-0.01084207370877266,-0.01820129156112671,XArbitraryZVertical,-0.1760423887815326,0.08303871341517,0.9377857544460292,0.287526617943432,0.3779317736625671,-0.05451130121946335,-0.9242272973060608,0,0,0,-1,-1,28637.56994825,unknown,2,2024-04-09T13:02:52.315+02:00,2024-04-09T08:50:23.531+02:00,2387,1.337689,0,0,1970.191,2,0,2024-04-09T12:41:02.932+02:00,734353395.3587478,0,42.73,99.44545,1,0.85
2024-04-09T13:03:16.323+02:00,1712660595.998684,53.22969102918199,10.40021009298944,35.26184,0,1.156876,73.68775718045516,180,3.367141497011305,4.742034918881693,-9999,28661.57719179167,0.3754730224609375,-0.0595855712890625,-0.9325103759765625,28661.56721379167,2.536732756798579,0.3896323912252251,0.05564343670102331,-0.05085610970854759,0.0560130774974823,0.03341152146458626,-0.003451824188232422,-0.02171679213643074,-0.003705322742462158,XArbitraryZVertical,-0.1766002472575565,0.08368882319213013,0.9377988743507534,0.2869527155059127,0.3792605102062225,-0.05561472848057747,-0.9236170649528503,0,0,0,-1,-1,28637.56994825,unknown,2,2024-04-09T13:02:52.315+02:00,2024-04-09T08:50:23.531+02:00,2387,1.337689,0,0,1970.191,2,0,2024-04-09T12:41:02.932+02:00,734353395.3587478,0,42.73,99.44545,1,0.85
2024-04-09T13:03:16.358+02:00,1712660595.998684,53.22969102918199,10.40021009298944,35.26184,0,1.156876,73.68775718045516,180,3.367141497011305,4.742034918881693,-9999,28661.61211579167,0.3848114013671875,-0.0516204833984375,-0.9320068359375,28661.56721379167,2.536732756798579,0.3896323912252251,0.05564343670102331,-0.05085610970854759,0.0560130774974823,0.03341152146458626,-0.003451824188232422,-0.02171679213643074,-0.003705322742462158,XArbitraryZVertical,-0.1766002472575565,0.08368882319213013,0.9377988743507534,0.2869527155059127,0.3792605102062225,-0.05561472848057747,-0.9236170649528503,0,0,0,-1,-1,28637.56994825,unknown,2,2024-04-09T13:02:52.315+02:00,2024-04-09T08:50:23.531+02:00,2387,1.337689,0,0,1970.191,2,0,2024-04-09T12:41:02.932+02:00,734353395.3587478,0,42.73,99.44545,1,0.85
2024-04-09T13:03:16.393+02:00,1712660595.998684,53.22969102918199,10.40021009298944,35.26184,0,1.156876,73.68775718045516,180,3.367141497011305,4.742034918881693,-9999,28661.64703879167,0.3858642578125,-0.051361083984375,-0.9274749755859375,28661.62708279167,2.539001345840357,0.3916764584343403,0.05489722792654109,-0.05758227780461311,0.06737299263477325,0.0251489095389843,0.00477716326713562,0.004607230424880981,-0.005558311939239502,XArbitraryZVertical,-0.177764259649303,0.08343183740412156,0.93793073288521,0.2858755492759555,0.3811633586883545,-0.05486965924501419,-0.9228779673576355,0,0,0,-1,-1,28637.56994825,unknown,2,2024-04-09T13:02:52.315+02:00,2024-04-09T08:50:23.531+02:00,2387,1.337689,0,0,1970.191,2,0,2024-04-09T12:41:02.932+02:00,734353395.3587478,0,42.73,99.44545,1,0.85
2024-04-09T13:03:16.428+02:00,1712660595.998684,53.22969102918199,10.40021009298944,35.26184,0,1.156876,73.68775718045516,180,3.367141497011305,4.742034918881693,-9999,28661.68196279167,0.391021728515625,-0.06268310546875,-0.92791748046875,28661.62708279167,2.539001345840357,0.3916764584343403,0.05489722792654109,-0.05758227780461311,0.06737299263477325,0.0251489095389843,0.00477716326713562,0.004607230424880981,-0.005558311939239502,XArbitraryZVertical,-0.177764259649303,0.08343183740412156,0.93793073288521,0.2858755492759555,0.3811633586883545,-0.05486965924501419,-0.9228779673576355,0,0,0,-1,-1,28637.56994825,unknown,2,2024-04-09T13:02:52.315+02:00,2024-04-09T08:50:23.531+02:00,2387,1.337689,0,0,1970.191,2,0,2024-04-09T12:41:02.932+02:00,734353395.3587478,0,42.73,99.44545,1,0.85
2024-04-09T13:03:16.464+02:00,1712660595.998684,53.22969102918199,10.40021009298944,35.26184,0,1.156876,73.68775718045516,180,3.367141497011305,4.742034918881693,-9999,28661.71688579167,0.385986328125,-0.0452423095703125,-0.933563232421875,28661.68695179167,2.540365407367592,0.393045522017104,0.05224565348523433,-0.06033456698060036,0.03252221643924713,0.005352606996893883,0.011241614818573,-0.004845958203077316,-0.008116543292999268,XArbitraryZVertical,-0.1788547588135538,0.08226635199674873,0.937960180387191,0.285436174657412,0.3824808597564697,-0.05222188681364059,-0.922486424446106,0,0,0,-1,-1,28637.56994825,unknown,2,2024-04-09T13:02:52.315+02:00,2024-04-09T08:50:23.531+02:00,2387,1.337689,0,0,1970.191,2,0,2024-04-09T12:41:02.932+02:00,734353395.3587478,0,42.73,99.44545,1,0.85
2024-04-09T13:03:16.508+02:00,1712660595.998684,53.22969102918199,10.40021009298944,35.26184,0,1.156876,73.68775718045516,180,3.367141497011305,4.742034918881693,-9999,28661.75180979167,0.384124755859375,-0.060455322265625,-0.9334564208984375,28661.74682079167,2.541133429113108,0.39429432822763,0.05165137335837513,0.0092308409512043,0.01685407757759094,0.01439810916781425,-0.002220511436462402,-0.01226011663675308,-0.01346451044082642,XArbitraryZVertical,-0.1795596048304272,0.08209784308813409,0.9379479416609404,0.2850824828613519,0.3836444318294525,-0.05162841081619263,-0.9220365881919861,0,0,0,-1,-1,28637.56994825,unknown,2,2024-04-09T13:02:52.315+02:00,2024-04-09T08:50:23.531+02:00,2387,1.337689,0,0,1970.191,2,0,2024-04-09T12:41:02.932+02:00,734353395.3587478,0,42.73,99.44545,1,0.85
2024-04-09T13:03:16.533+02:00,1712660595.998684,53.22969102918199,10.40021009298944,35.26184,0,1.156876,73.68775718045516,180,3.367141497011305,4.742034918881693,-9999,28661.78673279167,0.3851776123046875,-0.051910400390625,-0.93267822265625,28661.74682079167,2.541133429113108,0.39429432822763,0.05165137335837513,0.0092308409512043,0.01685407757759094,0.01439810916781425,-0.002220511436462402,-0.01226011663675308,-0.01346451044082642,XArbitraryZVertical,-0.1795596048304272,0.08209784308813409,0.9379479416609404,0.2850824828613519,0.3836444318294525,-0.05162841081619263,-0.9220365881919861,0,0,0,-1,-1,28637.56994825,unknown,2,2024-04-09T13:02:52.315+02:00,2024-04-09T08:50:23.531+02:00,2387,1.337689,0,0,1970.191,2,0,2024-04-09T12:41:02.932+02:00,734353395.3587478,0,42.73,99.44545,1,0.85
2024-04-09T13:03:16.568+02:00,1712660595.998684,53.22969102918199,10.40021009298944,35.26184,0,1.156876,73.68775718045516,180,3.367141497011305,4.742034918881693,-9999,28661.82165679167,0.3828887939453125,-0.055938720703125,-0.9318084716796875,28661.80668979167,2.541751467897309,0.3942677696265287,0.05190012185746082,0.01833232492208481,0.003278404474258423,0.009894285351037979,0.007940739393234253,0.01118165999650955,-0.01400023698806763,XArbitraryZVertical,-0.1795359009168987,0.08215486351755907,0.9380424939194801,0.2847694541769785,0.3836149871349335,-0.05187682434916496,-0.9220348596572876,0,0,0,-1,-1,28637.56994825,unknown,2,2024-04-09T13:02:52.315+02:00,2024-04-09T08:50:23.531+02:00,2387,1.337689,0,0,1970.191,2,0,2024-04-09T12:41:02.932+02:00,734353395.3587478,0,42.73,99.44545,1,0.85
2024-04-09T13:03:16.603+02:00,1712660595.998684,53.22969102918199,10.40021009298944,35.26184,0,1.156876,73.68775718045516,180,3.367141497011305,4.742034918881693,-9999,28661.85657979167,0.3914031982421875,-0.04742431640625,-0.925750732421875,28661.80668979167,2.541751467897309,0.3942677696265287,0.05190012185746082,0.01833232492208481,0.003278404474258423,0.009894285351037979,0.007940739393234253,0.01118165999650955,-0.01400023698806763,XArbitraryZVertical,-0.1795359009168987,0.08215486351755907,0.9380424939194801,0.2847694541769785,0.3836149871349335,-0.05187682434916496,-0.9220348596572876,0,0,0,-1,-1,28637.56994825,unknown,2,2024-04-09T13:02:52.315+02:00,2024-04-09T08:50:23.531+02:00,2387,1.337689,0,0,1970.191,2,0,2024-04-09T12:41:02.932+02:00,734353395.3587478,0,42.73,99.44545,1,0.85
2024-04-09T13:03:16.638+02:00,1712660595.998684,53.22969102918199,10.40021009298944,35.26184,0,1.156876,73.68775718045516,180,3.367141497011305,4.742034918881693,-9999,28661.89150379167,0.392608642578125,-0.0608062744140625,-0.9260406494140625,28661.86655879167,2.541353568962899,0.3955403972609444,0.05474771599287558,0.08361537009477615,-0.007607572712004185,0.01531507354229689,0.006673544645309448,0.00729607418179512,-0.0043448805809021,XArbitraryZVertical,-0.179696664336671,0.08370284917056629,0.9379185581083436,0.2846255962186509,0.3847296237945557,-0.05472037196159363,-0.9214059114456177,0,0,0,-1,-1,28637.56994825,unknown,2,2024-04-09T13:02:52.315+02:00,2024-04-09T08:50:23.531+02:00,2387,1.337689,0,0,1970.191,2,0,2024-04-09T12:41:02.932+02:00,734353395.3587478,0,42.73,99.44545,1,0.85
2024-04-09T13:03:16.673+02:00,1712660595.998684,53.22969102918199,10.40021009298944,35.26184,0,1.156876,73.68775718045516,180,3.367141497011305,4.742034918881693,-9999,28661.92642779167,0.3874053955078125,-0.055328369140625,-0.926849365234375,28661.86655879167,2.541353568962899,0.3955403972609444,0.05474771599287558,0.08361537009477615,-0.007607572712004185,0.01531507354229689,0.006673544645309448,0.00729607418179512,-0.0043448805809021,XArbitraryZVertical,-0.179696664336671,0.08370284917056629,0.9379185581083436,0.2846255962186509,0.3847296237945557,-0.05472037196159363,-0.9214059114456177,0,0,0,-1,-1,28637.56994825,unknown,2,2024-04-09T13:02:52.315+02:00,2024-04-09T08:50:23.531+02:00,2387,1.337689,0,0,1970.191,2,0,2024-04-09T12:41:02.932+02:00,734353395.3587478,0,42.73,99.44545,1,0.85
2024-04-09T13:03:16.708+02:00,1712660595.998684,53.22969102918199,10.40021009298944,35.26184,0,1.156876,73.68775718045516,180,3.367141497011305,4.742034918881693,-9999,28661.96135079167,0.3814544677734375,-0.065826416015625,-0.92816162109375,28661.92642779167,2.540571293875439,0.3949287801349725,0.0579701512039664,0.06629271060228348,-0.02041895315051079,0.01699822954833508,0.002790391445159912,-0.003265295177698135,-0.006474554538726807,XArbitraryZVertical,-0.1789011266617432,0.08519184051258351,0.9379130675413755,0.2847030498293793,0.3840961754322052,-0.05793768912553787,-0.921473503112793,0,0,0,-1,-1,28637.56994825,unknown,2,2024-04-09T13:02:52.315+02:00,2024-04-09T08:50:23.531+02:00,2387,1.337689,0,0,1970.191,2,0,2024-04-09T12:41:02.932+02:00,734353395.3587478,0,42.73,99.44545,1,0.85
2024-04-09T13:03:16.742+02:00,1712660595.998684,53.22969102918199,10.40021009298944,35.26184,0,1.156876,73.68775718045516,180,3.367141497011305,4.742034918881693,-9999,28661.99627479167,0.38385009765625,-0.072174072265625,-0.9356842041015625,28661.98629579167,2.540496594934694,0.3941920952733696,0.0613976567405775,0.01979111693799496,0.006736289709806442,0.01224167179316282,-0.01044443249702454,-0.01388197764754295,-0.005403995513916016,XArbitraryZVertical,-0.1780455973052516,0.08669519686297847,0.9380196744221693,0.2844341927954568,0.3833386898040771,-0.06135908886790276,-0.921567440032959,0,0,0,-1,-1,28637.56994825,unknown,2,2024-04-09T13:02:52.315+02:00,2024-04-09T08:50:23.531+02:00,2387,1.337689,0,0,1970.191,2,0,2024-04-09T12:41:02.932+02:00,734353395.3587478,0,42.73,99.44545,1,0.85
2024-04-09T13:03:16.778+02:00,1712660595.998684,53.22969102918199,10.40021009298944,35.26184,0,1.156876,73.68775718045516,180,3.367141497011305,4.742034918881693,-9999,28662.03119779167,0.3966217041015625,-0.045562744140625,-0.9436492919921875,28661.98629579167,2.540496594934694,0.3941920952733696,0.0613976567405775,0.01979111693799496,0.006736289709806442,0.01224167179316282,-0.01044443249702454,-0.01388197764754295,-0.005403995513916016,XArbitraryZVertical,-0.1780455973052516,0.08669519686297847,0.9380196744221693,0.2844341927954568,0.3833386898040771,-0.06135908886790276,-0.921567440032959,0,0,0,-1,-1,28637.56994825,unknown,2,2024-04-09T13:02:52.315+02:00,2024-04-09T08:50:23.531+02:00,2387,1.337689,0,0,1970.191,2,0,2024-04-09T12:41:02.932+02:00,734353395.3587478,0,42.73,99.44545,1,0.85
2024-04-09T13:03:16.812+02:00,1712660595.998684,53.22969102918199,10.40021009298944,35.26184,0,1.156876,73.68775718045516,180,3.367141497011305,4.742034918881693,-9999,28662.06612179167,0.382110595703125,-0.06939697265625,-0.9350433349609375,28662.04616479167,2.540401068882965,0.3930084357391914,0.06206823689261013,0.05052710324525833,-0.05723321810364723,0.001267089392058551,0.01391687989234924,0.01573324576020241,-0.0184321403503418,XArbitraryZVertical,-0.1773870370287407,0.08684866707407186,0.9381209724940235,0.2844647550962584,0.3822317719459534,-0.06202839314937592,-0.9219822883605957,0,0,0,-1,-1,28637.56994825,unknown,2,2024-04-09T13:02:52.315+02:00,2024-04-09T08:50:23.531+02:00,2387,1.337689,0,0,1970.191,2,0,2024-04-09T12:41:02.932+02:00,734353395.3587478,0,42.73,99.44545,1,0.85
2024-04-09T13:03:16.847+02:00,1712660595.998684,53.22969102918199,10.40021009298944,35.26184,0,1.156876,73.68775718045516,180,3.367141497011305,4.742034918881693,-9999,28662.10104479167,0.376434326171875,-0.082305908203125,-0.9299774169921875,28662.04616479167,2.540401068882965,0.3930084357391914,0.06206823689261013,0.05052710324525833,-0.05723321810364723,0.001267089392058551,0.01391687989234924,0.01573324576020241,-0.0184321403503418,XArbitraryZVertical,-0.1773870370287407,0.08684866707407186,0.9381209724940235,0.2844647550962584,0.3822317719459534,-0.06202839314937592,-0.9219822883605957,0,0,0,-1,-1,28637.56994825,unknown,2,2024-04-09T13:02:52.315+02:00,2024-04-09T08:50:23.531+02:00,2387,1.337689,0,0,1970.191,2,0,2024-04-09T12:41:02.932+02:00,734353395.3587478,0,42.73,99.44545,1,0.85
2024-04-09T13:03:16.883+02:00,1712660595.998684,53.22969102918199,10.40021009298944,35.26184,0,1.156876,73.68775718045516,180,3.367141497011305,4.742034918881693,-9999,28662.13596866667,0.38348388671875,-0.063385009765625,-0.9346771240234375,28662.10603379167,2.538647303071989,0.3893306090279129,0.0652344440331617,-0.0273109246045351,-0.01332558784633875,-0.02918729931116104,-0.001091599464416504,-0.0211460217833519,-0.006751418113708496,XArbitraryZVertical,-0.1751155934783721,0.08795892476164224,0.9382393223497113,0.2851398209326829,0.3787618577480316,-0.06518818438053131,-0.9231955409049988,0,0,0,-1,-1,28637.56994825,unknown,2,2024-04-09T13:02:52.315+02:00,2024-04-09T08:50:23.531+02:00,2387,1.337689,0,0,1970.191,2,0,2024-04-09T12:41:02.932+02:00,734353395.3587478,0,42.73,99.44545,1,0.85
2024-04-09T13:03:16.917+02:00,1712660595.998684,53.22969102918199,10.40021009298944,35.26184,0,1.156876,73.68775718045516,180,3.367141497011305,4.742034918881693,-9999,28662.17089166667,0.381378173828125,-0.06744384765625,-0.9272613525390625,28662.16590266667,2.537753649904491,0.3877498354408224,0.06462180737507946,0.03051841631531715,-0.03964357078075409,-0.0009169685654342175,0.005068182945251465,0.003862142562866211,-0.002866864204406738,XArbitraryZVertical,-0.1744259051366211,0.08752517027310969,0.9382416924188955,0.2856877465253531,0.3773170411586761,-0.06457684189081192,-0.9238299131393433,0,0,0,-1,-1,28637.56994825,unknown,2,2024-04-09T13:02:52.315+02:00,2024-04-09T08:50:23.531+02:00,2387,1.337689,0,0,1970.191,2,0,2024-04-09T12:41:02.932+02:00,734353395.3587478,0,42.73,99.44545,1,0.85
2024-04-09T13:03:16.952+02:00,1712660595.998684,53.22969102918199,10.40021009298944,35.26184,0,1.156876,73.68775718045516,180,3.367141497011305,4.742034918881693,-9999,28662.20581566667,0.3756561279296875,-0.0673065185546875,-0.9309844970703125,28662.16590266667,2.537753649904491,0.3877498354408224,0.06462180737507946,0.03051841631531715,-0.03964357078075409,-0.0009169685654342175,0.005068182945251465,0.003862142562866211,-0.002866864204406738,XArbitraryZVertical,-0.1744259051366211,0.08752517027310969,0.9382416924188955,0.2856877465253531,0.3773170411586761,-0.06457684189081192,-0.9238299131393433,0,0,0,-1,-1,28637.56994825,unknown,2,2024-04-09T13:02:52.315+02:00,2024-04-09T08:50:23.531+02:00,2387,1.337689,0,0,1970.191,2,0,2024-04-09T12:41:02.932+02:00,734353395.3587478,0,42.73,99.44545,1,0.85
