loggingTime(txt),locationTimestamp_since1970(s),locationLatitude(WGS84),locationLongitude(WGS84),locationAltitude(m),locationSpeed(m/s),locationSpeedAccuracy(m/s),locationCourse(°),locationCourseAccuracy(°),locationVerticalAccuracy(m),locationHorizontalAccuracy(m),locationFloor(Z),accelerometerTimestamp_sinceReboot(s),accelerometerAccelerationX(G),accelerometerAccelerationY(G),accelerometerAccelerationZ(G),motionTimestamp_sinceReboot(s),motionYaw(rad),motionRoll(rad),motionPitch(rad),motionRotationRateX(rad/s),motionRotationRateY(rad/s),motionRotationRateZ(rad/s),motionUserAccelerationX(G),motionUserAccelerationY(G),motionUserAccelerationZ(G),motionAttitudeReferenceFrame(txt),motionQuaternionX(R),motionQuaternionY(R),motionQuaternionZ(R),motionQuaternionW(R),motionGravityX(G),motionGravityY(G),motionGravityZ(G),motionMagneticFieldX(µT),motionMagneticFieldY(µT),motionMagneticFieldZ(µT),motionHeading(°),motionMagneticFieldCalibrationAccuracy(Z),activityTimestamp_sinceReboot(s),activity(txt),activityActivityConfidence(Z),activityActivityStartDate(txt),pedometerStartDate(txt),pedometerNumberofSteps(N),pedometerAverageActivePace(s/m),pedometerCurrentPace(s/m),pedometerCurrentCadence(steps/s),pedometerDistance(m),pedometerFloorAscended(N),pedometerFloorDescended(N),pedometerEndDate(txt)
2024-06-17T17:31:45.829+02:00,1718638304.999274,53.2282706637795,10.40336585635751,32.74057,0,0.3079722,-1,-1,3.360639727611937,4.746644883913816,-9999,3917.45090525,-0.068145751953125,-0.077545166015625,-1.000717163085938,3917.44588425,0.9026586689323062,-0.09088609566234909,0.06469319501929408,-0.07932014018297195,-0.04293829202651978,-0.09937870502471924,0.02566028386354446,-0.02873571217060089,-0.005752742290496826,XArbitraryZVertical,0.04887590174885987,-0.02676595320143541,0.4341618877842471,0.8991096746547625,-0.09057116508483887,-0.06464807689189911,-0.9937894344329834,0,0,0,-1,-1,3911.902580125,unknown,2,2024-06-17T17:31:40.279+02:00,2024-06-17T17:02:09.908+02:00,596,1.966004,0.8216969,1.562387,479.8037,0,0,2024-06-17T17:31:45.421+02:00
2024-06-17T17:31:45.864+02:00,1718638304.999274,53.2282706637795,10.40336585635751,32.74057,0,0.3079722,-1,-1,3.360639727611937,4.746644883913816,-9999,3917.48605225,-0.05828857421875,-0.0637054443359375,-1.00274658203125,3917.47601025,0.900216549166836,-0.09192261518904947,0.06531006529548275,0.1200830489397049,-0.05768663808703423,-0.07030174136161804,0.01995750516653061,0.02607906609773636,-0.008923590183258057,XArbitraryZVertical,0.04934469357594083,-0.02715746537735524,0.4330212296684228,0.8996222074893958,-0.09159751981496811,-0.06526364386081696,-0.9936551451683044,0,0,0,-1,-1,3911.902580125,unknown,2,2024-06-17T17:31:40.279+02:00,2024-06-17T17:02:09.908+02:00,596,1.966004,0.8216969,1.562387,479.8037,0,0,2024-06-17T17:31:45.421+02:00
2024-06-17T17:31:45.899+02:00,1718638304.999274,53.2282706637795,10.40336585635751,32.74057,0,0.3079722,-1,-1,3.360639727611937,4.746644883913816,-9999,3917.52120025,-0.0826263427734375,-0.0421600341796875,-1.010330200195312,3917.50613725,0.8984706830396282,-0.0941159933795685,0.06631492876622436,-0.04317904263734818,-0.07229144126176834,-0.02364391088485718,0.03494792431592941,-0.01161452382802963,-0.01335829496383667,XArbitraryZVertical,0.05024645539437256,-0.02796899906685431,0.4321529268556119,0.8999650141056208,-0.09377054870128632,-0.06626633554697037,-0.9933860301971436,0,0,0,-1,-1,3911.902580125,unknown,2,2024-06-17T17:31:40.279+02:00,2024-06-17T17:02:09.908+02:00,596,1.966004,0.8216969,1.562387,479.8037,0,0,2024-06-17T17:31:45.421+02:00
2024-06-17T17:31:45.934+02:00,1718638304.999274,53.2282706637795,10.40336585635751,32.74057,0,0.3079722,-1,-1,3.360639727611937,4.746644883913816,-9999,3917.55634825,-0.07232666015625,-0.060699462890625,-1.00006103515625,3917.53626325,0.8968264080789375,-0.09574938753082708,0.06667633469474157,0.02746989391744137,-0.09742819517850876,-0.06697492301464081,0.01776925474405289,0.02872410416603088,-0.01138520240783691,XArbitraryZVertical,0.05073820567250902,-0.02866710977425787,0.4313613638332724,0.9002950281711242,-0.09539071470499039,-0.06662694364786148,-0.9932076334953308,0,0,0,-1,-1,3911.902580125,unknown,2,2024-06-17T17:31:40.279+02:00,2024-06-17T17:02:09.908+02:00,596,1.966004,0.8216969,1.562387,479.8037,0,0,2024-06-17T17:31:45.421+02:00
2024-06-17T17:31:45.969+02:00,1718638304.999274,53.2282706637795,10.40336585635751,32.74057,0,0.3079722,-1,-1,3.360639727611937,4.746644883913816,-9999,3917.59149625,-0.09124755859375,-0.071197509765625,-1.003402709960938,3917.56639025,0.8950197912382197,-0.09800448876262323,0.06591682182659511,-0.05019208043813705,-0.1098859533667564,-0.0547393374145031,0.0253085270524025,0.005169622600078583,-0.007020950317382812,XArbitraryZVertical,0.05085623051304122,-0.02989307590599418,0.4305127031011574,0.9006545906993476,-0.0976351797580719,-0.06586910039186478,-0.9930400848388672,0,0,0,-1,-1,3911.902580125,unknown,2,2024-06-17T17:31:40.279+02:00,2024-06-17T17:02:09.908+02:00,596,1.966004,0.8216969,1.562387,479.8037,0,0,2024-06-17T17:31:45.421+02:00
2024-06-17T17:31:46.005+02:00,1718638304.999274,53.2282706637795,10.40336585635751,32.74057,0,0.3079722,-1,-1,3.360639727611937,4.746644883913816,-9999,3917.62664325,-0.1060333251953125,-0.0527191162109375,-0.992034912109375,3917.59651725,0.8925517358109903,-0.1004804430601036,0.06428659019107656,-0.07514896243810654,-0.1155650392174721,-0.06380730867385864,0.01070299744606018,-0.005536139011383057,-0.007358551025390625,XArbitraryZVertical,0.05061745255524465,-0.03142381877400925,0.4293860143610592,0.9011537631587178,-0.1001042351126671,-0.06424231827259064,-0.9929008483886719,0,0,0,-1,-1,3911.902580125,unknown,2,2024-06-17T17:31:40.279+02:00,2024-06-17T17:02:09.908+02:00,596,1.966004,0.8216969,1.562387,479.8037,0,0,2024-06-17T17:31:45.421+02:00
2024-06-17T17:31:46.040+02:00,1718638304.999274,53.2282706637795,10.40336585635751,32.74057,0,0.3079722,-1,-1,3.360639727611937,4.746644883913816,-9999,3917.661791125,-0.110260009765625,-0.0857086181640625,-0.9991455078125,3917.65677025,0.8919032269983184,-0.1048451302730053,0.06464803038681294,-0.03165694326162338,-0.07677771896123886,-0.03121674433350563,0.0043674036860466,-0.01545985788106918,-0.01126128435134888,XArbitraryZVertical,0.05170617050417108,-0.03332900945941832,0.4289712617643088,0.901221092696854,-0.104434534907341,-0.06460300832986832,-0.9924312829971313,0,0,0,-1,-1,3911.902580125,unknown,2,2024-06-17T17:31:40.279+02:00,2024-06-17T17:02:09.908+02:00,596,1.966004,0.8216969,1.562387,479.8037,0,0,2024-06-17T17:31:45.421+02:00
2024-06-17T17:31:46.075+02:00,1718638304.999274,53.2282706637795,10.40336585635751,32.74057,0,0.3079722,-1,-1,3.360639727611937,4.746644883913816,-9999,3917.696939125,-0.0993804931640625,-0.04107666015625,-0.98077392578125,3917.686897125,0.8905278376257612,-0.1058337633939296,0.06400433010526739,0.02250163443386555,-0.02337889187037945,-0.0479460135102272,-0.008013829588890076,-9.576231241226196e-05,0.001081466674804688,XArbitraryZVertical,0.05160530332762261,-0.03394903713400108,0.4283456253570084,0.9015011694835674,-0.1054200083017349,-0.06396064162254333,-0.9923686981201172,0,0,0,-1,-1,3911.902580125,unknown,2,2024-06-17T17:31:40.279+02:00,2024-06-17T17:02:09.908+02:00,596,1.966004,0.8216969,1.562387,479.8037,0,0,2024-06-17T17:31:45.421+02:00
2024-06-17T17:31:46.115+02:00,1718638304.999274,53.2282706637795,10.40336585635751,32.74057,0,0.3079722,-1,-1,3.360639727611937,4.746644883913816,-9999,3917.732087125,-0.1367645263671875,-0.107513427734375,-0.9880218505859375,3917.717023125,0.8935739650389133,-0.1094928278624106,0.06501931280796075,0.05712825432419777,-0.1883393824100494,0.1213884726166725,0.06708161532878876,0.07826390862464905,0.01998746395111084,XArbitraryZVertical,0.05289941302581368,-0.03529883480658828,0.4295908563226599,0.9007814901810728,-0.1090432852506638,-0.06497351080179214,-0.9919112920761108,0,0,0,-1,-1,3911.902580125,unknown,2,2024-06-17T17:31:40.279+02:00,2024-06-17T17:02:09.908+02:00,596,1.966004,0.8216969,1.562387,479.8037,0,0,2024-06-17T17:31:45.421+02:00
2024-06-17T17:31:46.145+02:00,1718638304.999274,53.2282706637795,10.40336585635751,32.74057,0,0.3079722,-1,-1,3.360639727611937,4.746644883913816,-9999,3917.767234125,-0.12060546875,-0.055908203125,-0.9852752685546875,3917.747150125,0.894142414632992,-0.1134245678338871,0.06394642811424564,-0.1331357061862946,-0.0931425541639328,0.0339662991464138,-0.02796471863985062,-0.035462386906147,0.0009430050849914551,XArbitraryZVertical,0.05327208897664262,-0.03728661733650494,0.4297768614799274,0.9005908025385089,-0.1129501909017563,-0.06390285491943359,-0.9915435910224915,0,0,0,-1,-1,3911.902580125,unknown,2,2024-06-17T17:31:40.279+02:00,2024-06-17T17:02:09.908+02:00,596,1.966004,0.8216969,1.562387,479.8037,0,0,2024-06-17T17:31:45.421+02:00
2024-06-17T17:31:46.180+02:00,1718638304.999274,53.2282706637795,10.40336585635751,32.74057,0,0.3079722,-1,-1,3.360639727611937,4.746644883913816,-9999,3917.802382125,-0.1064605712890625,-0.065643310546875,-0.9996337890625,3917.777277125,0.894280916445123,-0.1158852185235353,0.06129944948807226,0.001282631419599056,-0.07164619117975235,-0.06817041337490082,-0.005196623504161835,0.005352851003408432,0.006151914596557617,XArbitraryZVertical,0.05261373315219729,-0.0389640672943908,0.4298603475064458,0.900518514900756,-0.1154088452458382,-0.06126106530427933,-0.9914271831512451,0,0,0,-1,-1,3911.902580125,unknown,2,2024-06-17T17:31:40.279+02:00,2024-06-17T17:02:09.908+02:00,596,1.966004,0.8216969,1.562387,479.8037,0,0,2024-06-17T17:31:45.421+02:00
2024-06-17T17:31:46.215+02:00,1718638304.999274,53.2282706637795,10.40336585635751,32.74057,0,0.3079722,-1,-1,3.360639727611937,4.746644883913816,-9999,3917.837530125,-0.1189727783203125,-0.0518035888671875,-0.9908294677734375,3917.807403125,0.8927381284653754,-0.1173868158683479,0.06170305051157515,0.0006735664792358875,-0.05983399972319603,0.007100194692611694,0.007229618728160858,0.0009644292294979095,-0.007810533046722412,XArbitraryZVertical,0.05308732647904105,-0.03959373458775332,0.4291125920061443,0.9008199426724195,-0.1168945282697678,-0.0616639032959938,-0.9912281632423401,0,0,0,-1,-1,3911.902580125,unknown,2,2024-06-17T17:31:40.279+02:00,2024-06-17T17:02:09.908+02:00,596,1.966004,0.8216969,1.562387,479.8037,0,0,2024-06-17T17:31:45.421+02:00
2024-06-17T17:31:46.250+02:00,1718638304.999274,53.2282706637795,10.40336585635751,32.74057,0,0.3079722,-1,-1,3.360639727611937,4.746644883913816,-9999,3917.872678125,-0.1173248291015625,-0.05645751953125,-0.9856719970703125,3917.867657125,0.8920417490139556,-0.1202968802629877,0.06118725315055715,0.01350534241646528,-0.01245945319533348,-0.05599124357104301,-0.007491178810596466,0.01828713342547417,-0.0004330277442932129,XArbitraryZVertical,0.05346546665545383,-0.04103454153949875,0.4287386311963147,0.900911121180905,-0.1197823733091354,-0.06114907935261726,-0.9909152388572693,0,0,0,-1,-1,3911.902580125,unknown,2,2024-06-17T17:31:40.279+02:00,2024-06-17T17:02:09.908+02:00,596,1.966004,0.8216969,1.562387,479.8037,0,0,2024-06-17T17:31:45.421+02:00
2024-06-17T17:31:46.285+02:00,1718638305.99926,53.2282706637795,10.40336585635751,32.74057,0,0.3079722,-1,-1,3.360681542093274,4.746615278851069,-9999,3917.907825125,-0.1110687255859375,-0.0428314208984375,-0.993408203125,3917.897783125,0.890682181384299,-0.120130343252372,0.06074292296878964,-0.04510510712862015,0.006065122783184052,-0.03304491564631462,0.006934449076652527,-0.0005737282335758209,-0.002430856227874756,XArbitraryZVertical,0.05320204812455391,-0.04109168602758281,0.4281455105803917,0.9012060732791736,-0.1196205914020538,-0.06070557609200478,-0.990962028503418,0,0,0,-1,-1,3911.902580125,unknown,2,2024-06-17T17:31:40.279+02:00,2024-06-17T17:02:09.908+02:00,596,1.966004,0.8216969,1.562387,479.8037,0,0,2024-06-17T17:31:45.421+02:00
2024-06-17T17:31:46.321+02:00,1718638305.99926,53.2282706637795,10.40336585635751,32.74057,0,0.3079722,-1,-1,3.360681542093274,4.746615278851069,-9999,3917.942973125,-0.118133544921875,-0.0640411376953125,-0.9883270263671875,3917.927910125,0.8896026633342214,-0.1197873594459724,0.06052843627596692,0.005663398187607527,0.006182568147778511,-0.04209496080875397,0.008823879063129425,0.01604261994361877,-0.002666950225830078,XArbitraryZVertical,0.05301001149629012,-0.04101202283555135,0.4276753098890511,0.9014442735594985,-0.1192822530865669,-0.06049148365855217,-0.9910159111022949,0,0,0,-1,-1,3911.902580125,unknown,2,2024-06-17T17:31:40.279+02:00,2024-06-17T17:02:09.908+02:00,596,1.966004,0.8216969,1.562387,479.8037,0,0,2024-06-17T17:31:45.421+02:00
2024-06-17T17:31:46.356+02:00,1718638305.99926,53.2282706637795,10.40336585635751,32.74057,0,0.3079722,-1,-1,3.360681542093274,4.746615278851069,-9999,3917.978121125,-0.115631103515625,-0.058258056640625,-0.9889068603515625,3917.958037125,0.8884834040461237,-0.1192559284487307,0.05946749565674631,-0.0498785562813282,0.02778820693492889,-0.02854497171938419,0.0007821917533874512,-0.007034845650196075,0.003730833530426025,XArbitraryZVertical,0.05239603209173876,-0.04103042022594704,0.4272201751888456,0.9016951736769903,-0.1187631487846375,-0.05943245068192482,-0.9911423325538635,0,0,0,-1,-1,3911.902580125,unknown,2,2024-06-17T17:31:40.279+02:00,2024-06-17T17:02:09.908+02:00,596,1.966004,0.8216969,1.562387,479.8037,0,0,2024-06-17T17:31:45.421+02:00
2024-06-17T17:31:46.391+02:00,1718638305.99926,53.2282706637795,10.40336585635751,32.74057,0,0.3079722,-1,-1,3.360681542093274,4.746615278851069,-9999,3918.013269125,-0.1130828857421875,-0.0655517578125,-0.9844207763671875,3917.988163125,0.8876868363277072,-0.1183324995592978,0.05853060079357225,-0.01204842049628496,0.02339918538928032,-0.01847640424966812,0.002223275601863861,0.0002391189336776733,0.002399563789367676,XArbitraryZVertical,0.05176080932169742,-0.04083633312676352,0.4269160787315514,0.9018846771416853,-0.1178543716669083,-0.05849718675017357,-0.9913064241409302,0,0,0,-1,-1,3911.902580125,unknown,2,2024-06-17T17:31:40.279+02:00,2024-06-17T17:02:09.908+02:00,596,1.966004,0.8216969,1.562387,479.8037,0,0,2024-06-17T17:31:45.421+02:00
2024-06-17T17:31:46.427+02:00,1718638305.99926,53.2282706637795,10.40336585635751,32.74057,0,0.3079722,-1,-1,3.360681542093274,4.746615278851069,-9999,3918.048417125,-0.110504150390625,-0.057403564453125,-0.9952850341796875,3918.018290125,0.8871166696463865,-0.1175457012858725,0.05801674283445651,-0.01414825674146414,0.01659350283443928,-0.01704792864620686,0.003567755222320557,-0.005110900849103928,0.006885707378387451,XArbitraryZVertical,0.05134994506613785,-0.04060665869020622,0.4266961357364538,0.9020224856380723,-0.1170778870582581,-0.05798420310020447,-0.991428554058075,0,0,0,-1,-1,3911.902580125,unknown,2,2024-06-17T17:31:40.279+02:00,2024-06-17T17:02:09.908+02:00,596,1.966004,0.8216969,1.562387,479.8037,0,0,2024-06-17T17:31:45.421+02:00
2024-06-17T17:31:46.462+02:00,1718638305.99926,53.2282706637795,10.40336585635751,32.74057,0,0.3079722,-1,-1,3.360681542093274,4.746615278851069,-9999,3918.083564125,-0.1260223388671875,-0.0593719482421875,-1.000259399414062,3918.078543125,0.8867179009824675,-0.1169740280620837,0.0573186369872053,-0.03983557969331741,0.01243351306766272,-0.00616602785885334,-0.001022659242153168,-0.004663437604904175,-0.008708834648132324,XArbitraryZVertical,0.0509055388695523,-0.04050898767984441,0.4265536363588305,0.9021195940320014,-0.1165157854557037,-0.05728725716471672,-0.9915353059768677,0,0,0,-1,-1,3911.902580125,unknown,2,2024-06-17T17:31:40.279+02:00,2024-06-17T17:02:09.908+02:00,596,1.966004,0.8216969,1.562387,479.8037,0,0,2024-06-17T17:31:45.421+02:00
2024-06-17T17:31:46.497+02:00,1718638305.99926,53.2282706637795,10.40336585635751,32.74057,0,0.3079722,-1,-1,3.360681542093274,4.746615278851069,-9999,3918.118712125,-0.1115570068359375,-0.0611419677734375,-0.9992828369140625,3918.108670125,0.8867372945995533,-0.1164600417646851,0.05601335448808843,-0.03447123989462852,0.01401242054998875,0.01204719766974449,-0.007337316870689392,-0.003738846629858017,-0.006134271621704102,XArbitraryZVertical,0.05020846596141891,-0.04055701368030507,0.426617669302858,0.9021262088991993,-0.11601472645998,-0.05598406866192818,-0.9916684627532959,0,0,0,-1,-1,3911.902580125,unknown,2,2024-06-17T17:31:40.279+02:00,2024-06-17T17:02:09.908+02:00,596,1.966004,0.8216969,1.562387,479.8037,0,0,2024-06-17T17:31:45.421+02:00
2024-06-17T17:31:46.532+02:00,1718638305.99926,53.2282706637795,10.40336585635751,32.74057,0,0.3079722,-1,-1,3.360681542093274,4.746615278851069,-9999,3918.153860125,-0.1261444091796875,-0.061309814453125,-0.9854736328125,3918.138797125,0.8874208445144057,-0.1164272815142679,0.05603192701741611,0.01404050458222628,-0.01179542019963264,0.0336841344833374,0.004470892250537872,0.005022991448640823,-0.002560913562774658,XArbitraryZVertical,0.05022369836286129,-0.040521084940504,0.4269262049308299,0.9019809489957132,-0.1159821227192879,-0.05600261315703392,-0.9916712641716003,0,0,0,-1,-1,3911.902580125,unknown,2,2024-06-17T17:31:40.279+02:00,2024-06-17T17:02:09.908+02:00,596,1.966004,0.8216969,1.562387,479.8037,0,0,2024-06-17T17:31:45.421+02:00
2024-06-17T17:31:46.567+02:00,1718638305.99926,53.2282706637795,10.40336585635751,32.74057,0,0.3079722,-1,-1,3.360681542093274,4.746615278851069,-9999,3918.189008125,-0.121124267578125,-0.06243896484375,-0.9952239990234375,3918.168923125,0.8882838186189995,-0.1167660099754838,0.05618801369052508,-0.007619983516633511,0.0005513404030352831,0.02416346780955791,-0.01222303509712219,-0.01011047884821892,0.005523979663848877,XArbitraryZVertical,0.0503838150304977,-0.04061856281228939,0.427301783605954,0.9017898093552646,-0.1163169965147972,-0.05615845322608948,-0.9916232228279114,0,0,0,-1,-1,3911.902580125,unknown,2,2024-06-17T17:31:40.279+02:00,2024-06-17T17:02:09.908+02:00,596,1.966004,0.8216969,1.562387,479.8037,0,0,2024-06-17T17:31:45.421+02:00
2024-06-17T17:31:46.608+02:00,1718638305.99926,53.2282706637795,10.40336585635751,32.74057,0,0.3079722,-1,-1,3.360681542093274,4.746615278851069,-9999,3918.224155125,-0.1192474365234375,-0.0558624267578125,-0.989898681640625,3918.199050125,0.8889103362815353,-0.1168019298795937,0.05528540096716088,-0.02737418003380299,0.008579891175031662,0.03243493288755417,-0.004765778779983521,-0.007181733846664429,-0.003554999828338623,XArbitraryZVertical,0.04999792557826308,-0.04081327440198498,0.4276125254686614,0.9016551769690797,-0.1163584813475609,-0.05525724217295647,-0.9916689395904541,0,0,0,-1,-1,3911.902580125,unknown,2,2024-06-17T17:31:40.279+02:00,2024-06-17T17:02:09.908+02:00,596,1.966004,0.8216969,1.562387,479.8037,0,0,2024-06-17T17:31:45.421+02:00
2024-06-17T17:31:46.637+02:00,1718638305.99926,53.2282706637795,10.40336585635751,32.74057,0,0.3079722,-1,-1,3.360681542093274,4.746615278851069,-9999,3918.259303125,-0.10650634765625,-0.0550079345703125,-0.9902496337890625,3918.229176125,0.8890024238272419,-0.1165308586258887,0.05492290158730678,-0.007056924048811197,0.0059312186203897,-0.006314679980278015,-0.0005767121911048889,-0.0003873109817504883,-0.001672625541687012,XArbitraryZVertical,0.04977867715509195,-0.0407668077956768,0.4276725060967019,0.9016408618536594,-0.1160919815301895,-0.05489529296755791,-0.9917203187942505,0,0,0,-1,-1,3911.902580125,unknown,2,2024-06-17T17:31:40.279+02:00,2024-06-17T17:02:09.908+02:00,596,1.966004,0.8216969,1.562387,479.8037,0,0,2024-06-17T17:31:45.421+02:00
2024-06-17T17:31:46.672+02:00,1718638305.99926,53.2282706637795,10.40336585635751,32.74057,0,0.3079722,-1,-1,3.360681542093274,4.746615278851069,-9999,3918.294451125,-0.098602294921875,-0.050537109375,-0.99285888671875,3918.289430125,0.888273020695162,-0.1159357901573331,0.05312830518036412,-0.04326779395341873,0.02220595441758633,-0.01314595434814692,0.01445407420396805,0.01419339329004288,-0.0109984278678894,XArbitraryZVertical,0.04882866181757126,-0.04090267143099421,0.4274157300118805,0.9018085105442546,-0.1155130341649055,-0.05310331657528877,-0.9918854832649231,0,0,0,-1,-1,3911.902580125,unknown,2,2024-06-17T17:31:40.279+02:00,2024-06-17T17:02:09.908+02:00,596,1.966004,0.8216969,1.562387,479.8037,0,0,2024-06-17T17:31:45.421+02:00
2024-06-17T17:31:46.707+02:00,1718638305.99926,53.2282706637795,10.40336585635751,32.74057,0,0.3079722,-1,-1,3.360681542093274,4.746615278851069,-9999,3918.329599125,-0.0885162353515625,-0.054473876953125,-0.9929962158203125,3918.319556125,0.8876728556909981,-0.1152769770068409,0.0519936344714499,-0.0444476380944252,0.02543282695114613,-0.01238016132265329,0.01617255806922913,-0.003953255712985992,0.003327369689941406,XArbitraryZVertical,0.0481647092020929,-0.04086412117387413,0.427197051841775,0.9019495518467855,-0.1148663982748985,-0.05197020992636681,-0.9920205473899841,0,0,0,-1,-1,3911.902580125,unknown,2,2024-06-17T17:31:40.279+02:00,2024-06-17T17:02:09.908+02:00,596,1.966004,0.8216969,1.562387,479.8037,0,0,2024-06-17T17:31:45.421+02:00
2024-06-17T17:31:46.743+02:00,1718638305.99926,53.2282706637795,10.40336585635751,32.74057,0,0.3079722,-1,-1,3.360681542093274,4.746615278851069,-9999,3918.364746125,-0.0900421142578125,-0.0653533935546875,-0.96917724609375,3918.349683125,0.8867024739404532,-0.1145295935826505,0.05060320752477126,-0.06779011338949203,0.01410198304802179,-0.04457005485892296,0.03608439117670059,-0.006501525640487671,0.002140939235687256,XArbitraryZVertical,0.04735906865472925,-0.04084891412498372,0.4268209056312027,0.9021709810071247,-0.1141330897808075,-0.05058161541819572,-0.9921769499778748,0,0,0,-1,-1,3911.902580125,unknown,2,2024-06-17T17:31:40.279+02:00,2024-06-17T17:02:09.908+02:00,596,1.966004,0.8216969,1.562387,479.8037,0,0,2024-06-17T17:31:45.421+02:00
2024-06-17T17:31:46.778+02:00,1718638305.99926,53.2282706637795,10.40336585635751,32.74057,0,0.3079722,-1,-1,3.360681542093274,4.746615278851069,-9999,3918.399894125,-0.084075927734375,-0.0526885986328125,-0.9753570556640625,3918.379810125,0.8846041803738974,-0.1136083696284574,0.04773220951222822,-0.1200461983680725,0.01515300013124943,-0.07282863557338715,0.02232316881418228,-0.01986709609627724,0.02362614870071411,XArbitraryZVertical,0.04582601010339704,-0.04109787581764711,0.4259846547529781,0.9026338431987916,-0.1132350191473961,-0.04771408811211586,-0.9924218654632568,0,0,0,-1,-1,3911.902580125,unknown,2,2024-06-17T17:31:40.279+02:00,2024-06-17T17:02:09.908+02:00,596,1.966004,0.8216969,1.562387,479.8037,0,0,2024-06-17T17:31:45.421+02:00
2024-06-17T17:31:46.813+02:00,1718638305.99926,53.2282706637795,10.40336585635751,32.74057,0,0.3079722,-1,-1,3.360681542093274,4.746615278851069,-9999,3918.435042125,-0.0855712890625,-0.0383758544921875,-0.9848175048828125,3918.409936125,0.881576602031062,-0.1126069518179102,0.04456671064448377,-0.1217624619603157,0.02183806709945202,-0.1050927489995956,0.02818161994218826,-0.008136648684740067,0.017322838306427,XArbitraryZVertical,0.0441231842636798,-0.04139080782838628,0.4247366962620723,0.9032932502485626,-0.1122575476765633,-0.04455195739865303,-0.9926798939704895,0,0,0,-1,-1,3911.902580125,unknown,2,2024-06-17T17:31:40.279+02:00,2024-06-17T17:02:09.908+02:00,596,1.966004,0.8216969,1.562387,479.8037,0,0,2024-06-17T17:31:45.421+02:00
2024-06-17T17:31:46.848+02:00,1718638305.99926,53.2282706637795,10.40336585635751,32.74057,0,0.3079722,-1,-1,3.360681542093274,4.746615278851069,-9999,3918.470190125,-0.075225830078125,-0.00238037109375,-0.981781005859375,3918.440063125,0.8772242152873119,-0.1107704260415755,0.04088536675294026,-0.1798159182071686,0.04749139025807381,-0.1577206254005432,0.02878661453723907,0.006022892892360687,0.008833527565002441,XArbitraryZVertical,0.04198219711143199,-0.04143870219966762,0.4229191149743255,0.9042453789416656,-0.1104516535997391,-0.04087397828698158,-0.9930406808853149,0,0,0,-1,-1,3911.902580125,unknown,2,2024-06-17T17:31:40.279+02:00,2024-06-17T17:02:09.908+02:00,596,1.966004,0.8216969,1.562387,479.8037,0,0,2024-06-17T17:31:45.421+02:00
2024-06-17T17:31:46.883+02:00,1718638305.99926,53.2282706637795,10.40336585635751,32.74057,0,0.3079722,-1,-1,3.360681542093274,4.746615278851069,-9999,3918.505337125,-0.0712890625,-0.0557861328125,-0.941864013671875,3918.500316125,0.8660067942925253,-0.107655570060726,0.03185650104359951,-0.2063081115484238,-0.007107138633728027,-0.1875868290662766,0.03415104001760483,-0.008645724505186081,0.03322654962539673,XArbitraryZVertical,0.03700898703394179,-0.04215669832585352,0.41816018112093,0.9066394910972014,-0.1073932275176048,-0.03185111284255981,-0.9937062859535217,0,0,0,-1,-1,3911.902580125,unknown,2,2024-06-17T17:31:40.279+02:00,2024-06-17T17:02:09.908+02:00,596,1.966004,0.8216969,1.562387,479.8037,0,0,2024-06-17T17:31:45.421+02:00
2024-06-17T17:31:46.919+02:00,1718638305.99926,53.2282706637795,10.40336585635751,32.74057,0,0.3079722,-1,-1,3.360681542093274,4.746615278851069,-9999,3918.540485125,-0.112213134765625,-0.016204833984375,-0.9531097412109375,3918.530443125,0.8593638505478995,-0.1082972746872611,0.02544498594543056,-0.2710419893264771,-0.06823147833347321,-0.2136864215135574,0.03097858279943466,-0.008615387603640556,0.04142719507217407,XArbitraryZVertical,0.03409321306641534,-0.04390635251394983,0.4153114504226256,0.90797928153269,-0.1080507189035416,-0.02544224075973034,-0.9938197731971741,0,0,0,-1,-1,3911.902580125,unknown,2,2024-06-17T17:31:40.279+02:00,2024-06-17T17:02:09.908+02:00,596,1.966004,0.8216969,1.562387,479.8037,0,0,2024-06-17T17:31:45.421+02:00
2024-06-17T17:31:46.954+02:00,1718638305.99926,53.2282706637795,10.40336585635751,32.74057,0,0.3079722,-1,-1,3.360681542093274,4.746615278851069,-9999,3918.575633125,-0.1205596923828125,-0.030792236328125,-0.949554443359375,3918.560570125,0.8500719099948758,-0.1100549637798722,0.01842310783204696,-0.2963617742061615,-0.09272449463605881,-0.3580457866191864,0.01374495774507523,-0.0007582437247037888,0.04917079210281372,XArbitraryZVertical,0.03105749505713352,-0.04631131768866815,0.4112503915091958,0.9098151773032412,-0.1098142936825752,-0.01842206530272961,-0.9937813878059387,0,0,0,-1,-1,3911.902580125,unknown,2,2024-06-17T17:31:40.279+02:00,2024-06-17T17:02:09.908+02:00,596,1.966004,0.8216969,1.562387,479.8037,0,0,2024-06-17T17:31:45.421+02:00
2024-06-17T17:31:46.989+02:00,1718638305.99926,53.2282706637795,10.40336585635751,32.74057,0,0.3079722,-1,-1,3.360681542093274,4.746615278851069,-9999,3918.610781125,-0.1232452392578125,0.001220703125,-0.9734649658203125,3918.590696125,0.8377689867102774,-0.1123429659473858,0.009687612324062034,-0.3614597916603088,-0.08653338998556137,-0.3863868713378906,-0.004857078194618225,-0.02124211750924587,0.04565149545669556,XArbitraryZVertical,0.02725302848556466,-0.04932043199236757,0.4058469278891762,0.912202334384882,-0.1121015399694443,-0.009687460958957672,-0.9936495423316956,0,0,0,-1,-1,3911.902580125,unknown,2,2024-06-17T17:31:40.279+02:00,2024-06-17T17:02:09.908+02:00,596,1.966004,0.8216969,1.562387,479.8037,0,0,2024-06-17T17:31:45.421+02:00
2024-06-17T17:31:47.024+02:00,1718638305.99926,53.2282706637795,10.40336585635751,32.74057,0,0.3079722,-1,-1,3.360681542093274,4.746615278851069,-9999,3918.645929125,-0.1099395751953125,-0.0093994140625,-0.93798828125,3918.620823125,0.824753155917227,-0.1156102302210087,0.001600549634581578,-0.2740573287010193,-0.1286647766828537,-0.4213204085826874,-0.007892511785030365,0.002821240108460188,0.01985836029052734,XArbitraryZVertical,0.02388664724053628,-0.05260965775557242,0.400075929925073,0.9146588051976259,-0.1153527200222015,-0.001600548974238336,-0.9933233261108398,0,0,0,-1,-1,3911.902580125,unknown,2,2024-06-17T17:31:40.279+02:00,2024-06-17T17:02:09.908+02:00,596,1.966004,0.8216969,1.562387,479.8037,0,0,2024-06-17T17:31:45.421+02:00
2024-06-17T17:31:47.059+02:00,1718638305.99926,53.2282706637795,10.40336585635751,32.74057,0,0.3079722,-1,-1,3.360681542093274,4.746615278851069,-9999,3918.681076791667,-0.1052703857421875,0.00518798828125,-0.87298583984375,3918.650950125,0.8090307113952675,-0.1203678817992039,-0.007379038838139954,-0.4938385486602783,-0.1545608788728714,-0.5450398325920105,0.01396455615758896,-0.01851790025830269,0.0538642406463623,XArbitraryZVertical,0.02028672931370644,-0.05674238307103222,0.3930620327413648,0.9175353112870829,-0.1200741678476334,0.007378971669822931,-0.9927374720573425,0,0,0,-1,-1,3911.902580125,unknown,2,2024-06-17T17:31:40.279+02:00,2024-06-17T17:02:09.908+02:00,596,1.966004,0.8216969,1.562387,479.8037,0,0,2024-06-17T17:31:45.421+02:00
2024-06-17T17:31:47.094+02:00,1718638305.99926,53.2282706637795,10.40336585635751,32.74057,0,0.3079722,-1,-1,3.360681542093274,4.746615278851069,-9999,3918.716224791667,-0.0970458984375,0.0400238037109375,-0.8406829833984375,3918.711203791667,0.7648956597785376,-0.1333406165845913,-0.03737042062087726,-0.6922048926353455,-0.2800975739955902,-0.7652421593666077,0.04969263076782227,0.008582476526498795,0.1319718360900879,XArbitraryZVertical,0.007562334174744912,-0.06875431780907572,0.3734532750098279,0.9250667207147953,-0.1328530162572861,0.03736172243952751,-0.9904313087463379,0,0,0,-1,-1,3911.902580125,unknown,2,2024-06-17T17:31:40.279+02:00,2024-06-17T17:02:09.908+02:00,596,1.966004,0.8216969,1.562387,479.8037,0,0,2024-06-17T17:31:45.421+02:00
2024-06-17T17:31:47.129+02:00,1718638305.99926,53.2282706637795,10.40336585635751,32.74057,0,0.3079722,-1,-1,3.360681542093274,4.746615278851069,-9999,3918.751372791667,-0.166961669921875,0.1033935546875,-0.8548126220703125,3918.741330791667,0.7372547301383522,-0.1439163172426952,-0.05754845021717923,-0.9127511382102966,-0.3251627087593079,-0.8600918650627136,0.02697168290615082,-0.02536643669009209,0.137437641620636,XArbitraryZVertical,-0.0008721240523829956,-0.07737865155981774,0.3611835912523109,0.9292782955999015,-0.1431826055049896,0.05751669034361839,-0.988023579120636,0,0,0,-1,-1,3911.902580125,unknown,2,2024-06-17T17:31:40.279+02:00,2024-06-17T17:02:09.908+02:00,596,1.966004,0.8216969,1.562387,479.8037,0,0,2024-06-17T17:31:45.421+02:00
2024-06-17T17:31:47.164+02:00,1718638305.99926,53.2282706637795,10.40336585635751,32.74057,0,0.3079722,-1,-1,3.360681542093274,4.746615278851069,-9999,3918.786520791667,-0.2259979248046875,0.239013671875,-0.9084320068359375,3918.771456791667,0.7052993299191297,-0.1550959618892752,-0.08315735831257261,-0.9804131984710693,-0.255413293838501,-0.9988293051719666,-0.03744988143444061,0.02092708647251129,0.1263367533683777,XArbitraryZVertical,-0.01215749086768266,-0.0869533841817844,0.3470720313044792,0.9337196077734211,-0.1539411097764969,0.08306155353784561,-0.9845826029777527,0,0,0,-1,-1,3911.902580125,unknown,2,2024-06-17T17:31:40.279+02:00,2024-06-17T17:02:09.908+02:00,596,1.966004,0.8216969,1.562387,479.8037,0,0,2024-06-17T17:31:45.421+02:00
2024-06-17T17:31:47.200+02:00,1718638305.99926,53.2282706637795,10.40336585635751,32.74057,0,0.3079722,-1,-1,3.360681542093274,4.746615278851069,-9999,3918.821667791667,-0.216827392578125,0.1548919677734375,-0.8823089599609375,3918.801583791667,0.6717596548186509,-0.1654993647533688,-0.1061807784539004,-0.9261543750762939,-0.2327774167060852,-0.9141016006469727,-0.06730780005455017,0.1657776534557343,0.07430237531661987,XArbitraryZVertical,-0.02272396902050887,-0.09535712326913834,0.3321503630802712,0.9381187901830504,-0.1638170629739761,0.1059813722968102,-0.9807812571525574,0,0,0,-1,-1,3911.902580125,unknown,2,2024-06-17T17:31:40.279+02:00,2024-06-17T17:02:09.908+02:00,596,1.966004,0.8216969,1.562387,479.8037,0,0,2024-06-17T17:31:45.421+02:00
2024-06-17T17:31:47.235+02:00,1718638305.99926,53.2282706637795,10.40336585635751,32.74057,0,0.3079722,-1,-1,3.360681542093274,4.746615278851069,-9999,3918.856815791667,-0.31536865234375,0.143951416015625,-0.8774566650390625,3918.831710791667,0.6380109685157411,-0.1780908193295373,-0.1280542374957658,-0.9545490145683289,-0.346435546875,-1.041523933410645,-0.04112693667411804,0.02718739211559296,0.09381651878356934,XArbitraryZVertical,-0.03268197585566118,-0.1042552724361642,0.3171425809764816,0.9420633317459468,-0.1757004410028458,0.1277045607566833,-0.9761254787445068,0,0,0,-1,-1,3911.902580125,unknown,2,2024-06-17T17:31:40.279+02:00,2024-06-17T17:02:09.908+02:00,596,1.966004,0.8216969,1.562387,479.8037,0,0,2024-06-17T17:31:45.421+02:00
2024-06-17T17:31:47.271+02:00,1718638305.99926,53.2282706637795,10.40336585635751,32.74057,0,0.3079722,-1,-1,3.360681542093274,4.746615278851069,-9999,3918.891963791667,-0.2085418701171875,0.3311767578125,-1.112442016601562,3918.861836791667,0.6000813344530502,-0.1927818136520797,-0.156183720829589,-1.262825965881348,-0.259991317987442,-1.018001556396484,-0.1283690333366394,-0.04625082015991211,0.07347148656845093,XArbitraryZVertical,-0.04582288582839755,-0.1146121366395306,0.300463142787453,0.9457727680069062,-0.1892579048871994,0.1555495262145996,-0.9695286154747009,0,0,0,-1,-1,3911.902580125,unknown,2,2024-06-17T17:31:40.279+02:00,2024-06-17T17:02:09.908+02:00,596,1.966004,0.8216969,1.562387,479.8037,0,0,2024-06-17T17:31:45.421+02:00
2024-06-17T17:31:47.305+02:00,1718638305.99926,53.2282706637795,10.40336585635751,32.74057,0,0.3079722,-1,-1,3.360681542093274,4.746615278851069,-9999,3918.927111791667,-0.2022552490234375,0.156219482421875,-1.142120361328125,3918.922090791667,0.5383276675440043,-0.2266235395924593,-0.1792741009730389,-0.2357952892780304,-0.450614333152771,-0.7647231817245483,0.03366398811340332,0.03178289532661438,-0.1895779371261597,XArbitraryZVertical,-0.05579314778532765,-0.1322128411547099,0.2729165584594918,0.9512745934817256,-0.2210876792669296,0.1783153563737869,-0.9588137865066528,0,0,0,-1,-1,3911.902580125,unknown,2,2024-06-17T17:31:40.279+02:00,2024-06-17T17:02:09.908+02:00,596,1.966004,0.8216969,1.562387,479.8037,0,0,2024-06-17T17:31:45.421+02:00
2024-06-17T17:31:47.340+02:00,1718638305.99926,53.2282706637795,10.40336585635751,32.74057,0,0.3079722,-1,-1,3.360681542093274,4.746615278851069,-9999,3918.962259791667,-0.2076873779296875,0.249053955078125,-1.064254760742188,3918.952216791667,0.5189051737113367,-0.245612905765331,-0.1776528512183273,0.1871024370193481,-0.6643916964530945,-0.4880333840847015,0.06488551199436188,0.02588631212711334,-0.1580861806869507,XArbitraryZVertical,-0.05379172135964118,-0.1405184798007353,0.2641185714609656,0.9526816765350212,-0.2393239736557007,0.1767198592424393,-0.954721987247467,0,0,0,-1,-1,3911.902580125,unknown,2,2024-06-17T17:31:40.279+02:00,2024-06-17T17:02:09.908+02:00,596,1.966004,0.8216969,1.562387,479.8037,0,0,2024-06-17T17:31:45.421+02:00
2024-06-17T17:31:47.375+02:00,1718638305.99926,53.2282706637795,10.40336585635751,32.74057,0,0.3079722,-1,-1,3.360681542093274,4.746615278851069,-9999,3918.997406791667,-0.3556060791015625,0.0477294921875,-1.113113403320312,3918.982343791667,0.5110049527960419,-0.2708651230096401,-0.1612625217128752,0.6640975475311279,-0.9163011908531189,-0.3169421851634979,0.02761286497116089,0.009220033884048462,-0.07253658771514893,XArbitraryZVertical,-0.04320289843369322,-0.1503808842481013,0.260125654532205,0.9528136570334216,-0.2640935480594635,0.1605644822120667,-0.9510381817817688,0,0,0,-1,-1,3911.902580125,unknown,2,2024-06-17T17:31:40.279+02:00,2024-06-17T17:02:09.908+02:00,596,1.966004,0.8216969,1.562387,479.8037,0,0,2024-06-17T17:31:45.421+02:00
2024-06-17T17:31:47.411+02:00,1718638305.99926,53.2282706637795,10.40336585635751,32.74057,0,0.3079722,-1,-1,3.360681542093274,4.746615278851069,-9999,3919.032554791667,-0.44451904296875,0.045989990234375,-1.195709228515625,3919.012470791667,0.5098156704708883,-0.2985702982102154,-0.1390540942912578,0.6612177491188049,-0.8461276888847351,-0.1621186584234238,-0.08841544389724731,-0.08878646790981293,-0.1935125589370728,XArbitraryZVertical,-0.02906557667505883,-0.1609002387573591,0.258747847221897,0.952006237821387,-0.2913147509098053,0.1386063992977142,-0.9465326070785522,0,0,0,-1,-1,3911.902580125,unknown,2,2024-06-17T17:31:40.279+02:00,2024-06-17T17:02:09.908+02:00,596,1.966004,0.8216969,1.562387,479.8037,0,0,2024-06-17T17:31:45.421+02:00
2024-06-17T17:31:47.446+02:00,1718638305.99926,53.2282706637795,10.40336585635751,32.74057,0,0.3079722,-1,-1,3.360681542093274,4.746615278851069,-9999,3919.067702791667,-0.4181671142578125,0.0594635009765625,-1.13922119140625,3919.042596791667,0.5093042970337512,-0.3204119638362823,-0.1219699425916889,0.4776743054389954,-0.6008416414260864,-0.2758734822273254,-0.1319012939929962,-0.0756777748465538,-0.2536544799804688,XArbitraryZVertical,-0.01811622297427439,-0.1692466648310571,0.2576294901591336,0.9511332981772734,-0.3126177191734314,0.1216677501797676,-0.9420547485351562,0,0,0,-1,-1,3911.902580125,unknown,2,2024-06-17T17:31:40.279+02:00,2024-06-17T17:02:09.908+02:00,596,1.966004,0.8216969,1.562387,479.8037,0,0,2024-06-17T17:31:45.421+02:00
2024-06-17T17:31:47.481+02:00,1718638306.999246,53.2282706637795,10.40336585635751,32.74057,0,0.3079722,-1,-1,3.360683262580589,4.746614060717337,-9999,3919.102850791667,-0.4209747314453125,0.0380859375,-1.047836303710938,3919.072723791667,0.5062244621938101,-0.3368462075783961,-0.108622128905779,0.2474408745765686,-0.4109169244766235,-0.180040568113327,-0.07673966884613037,-0.05167648941278458,-0.2050559520721436,XArbitraryZVertical,-0.009895910119922264,-0.1754491209262087,0.2553205209150526,0.9507529656012677,-0.3285642862319946,0.1084086522459984,-0.9382393360137939,0,0,0,-1,-1,3911.902580125,unknown,2,2024-06-17T17:31:40.279+02:00,2024-06-17T17:02:09.908+02:00,596,1.966004,0.8216969,1.562387,479.8037,0,0,2024-06-17T17:31:45.421+02:00
2024-06-17T17:31:47.516+02:00,1718638306.999246,53.2282706637795,10.40336585635751,32.74057,0,0.3079722,-1,-1,3.360683262580589,4.746614060717337,-9999,3919.137997791667,-0.406097412109375,-0.0047454833984375,-1.022293090820312,3919.132976791667,0.5025215467575622,-0.3514129602750194,-0.08759807517059851,0.3791979253292084,-0.08338430523872375,-0.144828125834465,-0.07552158832550049,-0.09593947231769562,-0.09507763385772705,XArbitraryZVertical,0.001661773313096848,-0.1798709785518667,0.2519760182818722,0.9508689604672612,-0.3429049253463745,0.08748608827590942,-0.9352873563766479,0,0,0,-1,-1,3911.902580125,unknown,2,2024-06-17T17:31:40.279+02:00,2024-06-17T17:02:09.908+02:00,596,1.966004,0.8216969,1.562387,479.8037,0,0,2024-06-17T17:31:45.421+02:00
2024-06-17T17:31:47.551+02:00,1718638306.999246,53.2282706637795,10.40336585635751,32.74057,0,0.3079722,-1,-1,3.360683262580589,4.746614060717337,-9999,3919.173145791667,-0.3481903076171875,0.0091400146484375,-0.99749755859375,3919.163103791667,0.5028088802298379,-0.3521103526580088,-0.0776134393039089,0.27443927526474,0.0241622868925333,-0.07434748113155365,-0.03044161200523376,-0.05458633601665497,-0.0735781192779541,XArbitraryZVertical,0.006541081685019022,-0.1790155858672147,0.2513163381340192,0.9511838215598115,-0.3438412249088287,0.07753553986549377,-0.9358212947845459,0,0,0,-1,-1,3911.902580125,unknown,2,2024-06-17T17:31:40.279+02:00,2024-06-17T17:02:09.908+02:00,596,1.966004,0.8216969,1.562387,479.8037,0,0,2024-06-17T17:31:45.421+02:00
2024-06-17T17:31:47.586+02:00,1718638306.999246,53.2282706637795,10.40336585635751,32.74057,0,0.3079722,-1,-1,3.360683262580589,4.746614060717337,-9999,3919.208293791667,-0.331329345703125,-0.0335845947265625,-0.9804840087890625,3919.193230791667,0.503638935428252,-0.3500302874714058,-0.06912909321811284,0.2837676703929901,0.1071007922291756,-0.05952281504869461,-0.002497255802154541,-0.05601254105567932,-0.06613141298294067,XArbitraryZVertical,0.01040323193176919,-0.177009687903546,0.2510411281712075,0.9515973803166593,-0.3421071767807007,0.06907404959201813,-0.9371187090873718,0,0,0,-1,-1,3911.902580125,unknown,2,2024-06-17T17:31:40.279+02:00,2024-06-17T17:02:09.908+02:00,596,1.966004,0.8216969,1.562387,479.8037,0,0,2024-06-17T17:31:45.421+02:00
2024-06-17T17:31:47.622+02:00,1718638306.999246,53.2282706637795,10.40336585635751,32.74057,0,0.3079722,-1,-1,3.360683262580589,4.746614060717337,-9999,3919.243441791667,-0.3279876708984375,-0.061187744140625,-0.9649658203125,3919.223356791667,0.5052493798359463,-0.3462076009976204,-0.05940936591374275,0.3374252915382385,0.1407297551631927,-0.05858395993709564,0.007404893636703491,-0.1013055890798569,-0.03342056274414062,XArbitraryZVertical,0.01470405377133749,-0.1740125865484808,0.2510553416706848,0.9520896205405179,-0.3387342095375061,0.05937442556023598,-0.9390068054199219,0,0,0,-1,-1,3911.902580125,unknown,2,2024-06-17T17:31:40.279+02:00,2024-06-17T17:02:09.908+02:00,596,1.966004,0.8216969,1.562387,479.8037,0,0,2024-06-17T17:31:45.421+02:00
2024-06-17T17:31:47.657+02:00,1718638306.999246,53.2282706637795,10.40336585635751,32.74057,0,0.3079722,-1,-1,3.360683262580589,4.746614060717337,-9999,3919.278589791667,-0.2911529541015625,-0.0067596435546875,-0.9436187744140625,3919.253483791667,0.5061919671619741,-0.340734371006236,-0.051584286564587,0.1554542183876038,0.2215697765350342,-0.05585417896509171,0.005747169256210327,-0.1127491742372513,-0.02371001243591309,XArbitraryZVertical,0.01783396570585197,-0.1704524799078137,0.2509283772447272,0.9527133901947743,-0.3337348103523254,0.05156141147017479,-0.9412558078765869,0,0,0,-1,-1,3911.902580125,unknown,2,2024-06-17T17:31:40.279+02:00,2024-06-17T17:02:09.908+02:00,596,1.966004,0.8216969,1.562387,479.8037,0,0,2024-06-17T17:31:45.421+02:00
2024-06-17T17:31:47.691+02:00,1718638306.999246,53.2282706637795,10.40336585635751,32.74057,0,0.3079722,-1,-1,3.360683262580589,4.746614060717337,-9999,3919.313736791667,-0.286224365234375,-0.0442657470703125,-0.9283447265625,3919.283610791667,0.5058276384365132,-0.3332411351596258,-0.04741821956695705,0.1532847434282303,0.2530151307582855,-0.05528990179300308,0.02676737308502197,-0.06044672802090645,-0.006911277770996094,XArbitraryZVertical,0.01885367779048237,-0.1663793404416912,0.2504981082296481,0.9535266480256378,-0.3267398774623871,0.04740045219659805,-0.9439249038696289,0,0,0,-1,-1,3911.902580125,unknown,2,2024-06-17T17:31:40.279+02:00,2024-06-17T17:02:09.908+02:00,596,1.966004,0.8216969,1.562387,479.8037,0,0,2024-06-17T17:31:45.421+02:00
2024-06-17T17:31:47.727+02:00,1718638306.999246,53.2282706637795,10.40336585635751,32.74057,0,0.3079722,-1,-1,3.360683262580589,4.746614060717337,-9999,3919.348884791667,-0.27178955078125,-0.0538482666015625,-0.9168853759765625,3919.343863791667,0.5043005023899284,-0.3168818065316455,-0.04048160219348957,0.09679710119962692,0.3173697292804718,-0.08301126956939697,0.03029820322990417,-0.07220883667469025,0.02371299266815186,XArbitraryZVertical,0.02000174607752359,-0.1577444955445156,0.24940373365456,0.9552562477007372,-0.3113498389720917,0.04047054797410965,-0.9494332075119019,0,0,0,-1,-1,3911.902580125,unknown,2,2024-06-17T17:31:40.279+02:00,2024-06-17T17:02:09.908+02:00,596,1.966004,0.8216969,1.562387,479.8037,0,0,2024-06-17T17:31:45.421+02:00
2024-06-17T17:31:47.762+02:00,1718638306.999246,53.2282706637795,10.40336585635751,32.74057,0,0.3079722,-1,-1,3.360683262580589,4.746614060717337,-9999,3919.384032791667,-0.267425537109375,-0.075775146484375,-0.8722381591796875,3919.373990791667,0.5016716264647564,-0.3071124904668162,-0.03860857045452658,-0.07497479021549225,0.3447917997837067,-0.1306218504905701,0.03557220101356506,-0.1058292165398598,0.0551612377166748,XArbitraryZVertical,0.01947910237946977,-0.1528741675747807,0.2481074458463681,0.9563956902651537,-0.3020822107791901,0.03859898075461388,-0.9525001049041748,0,0,0,-1,-1,3911.902580125,unknown,2,2024-06-17T17:31:40.279+02:00,2024-06-17T17:02:09.908+02:00,596,1.966004,0.8216969,1.562387,479.8037,0,0,2024-06-17T17:31:45.421+02:00
2024-06-17T17:31:47.797+02:00,1718638306.999246,53.2282706637795,10.40336585635751,32.74057,0,0.3079722,-1,-1,3.360683262580589,4.746614060717337,-9999,3919.419180791667,-0.2622833251953125,-0.1122283935546875,-0.817901611328125,3919.404116791667,0.4952317219913487,-0.296986197616441,-0.04293833262214469,-0.3087091147899628,0.3475954234600067,-0.1965220421552658,0.02428829669952393,-0.1164419949054718,0.09221279621124268,XArbitraryZVertical,0.01566898537043445,-0.1486060797053708,0.2454193583776854,0.9578309365124639,-0.292369931936264,0.04292513802647591,-0.9553414583206177,0,0,0,-1,-1,3911.902580125,unknown,2,2024-06-17T17:31:40.279+02:00,2024-06-17T17:02:09.908+02:00,596,1.966004,0.8216969,1.562387,479.8037,0,0,2024-06-17T17:31:45.421+02:00
2024-06-17T17:31:47.832+02:00,1718638306.999246,53.2282706637795,10.40336585635751,32.74057,0,0.3079722,-1,-1,3.360683262580589,4.746614060717337,-9999,3919.454327791667,-0.3675537109375,-0.27386474609375,-0.7686614990234375,3919.434243791667,0.4834560644264643,-0.2875114739813052,-0.05252006912204383,-0.5615357756614685,0.3430885672569275,-0.4030706882476807,0.0158112645149231,-0.1862392276525497,0.1391640901565552,XArbitraryZVertical,0.009051484652367292,-0.1452685352141277,0.2404820999011002,0.9596788740705281,-0.2831757366657257,0.05249592661857605,-0.9576302170753479,0,0,0,-1,-1,3911.902580125,unknown,2,2024-06-17T17:31:40.279+02:00,2024-06-17T17:02:09.908+02:00,596,1.966004,0.8216969,1.562387,479.8037,0,0,2024-06-17T17:31:45.421+02:00
2024-06-17T17:31:47.867+02:00,1718638306.999246,53.2282706637795,10.40336585635751,32.74057,0,0.3079722,-1,-1,3.360683262580589,4.746614060717337,-9999,3919.489475791667,-0.4837799072265625,-0.4121856689453125,-0.736663818359375,3919.464370791667,0.4574011603988501,-0.2777662170250036,-0.07386233456418166,-1.419728755950928,0.4386511445045471,-0.9078630805015564,-0.09409317374229431,-0.3476599454879761,0.1903867721557617,XArbitraryZVertical,-0.00425114992961826,-0.1430307053218208,0.2293544440062546,0.9627672655296019,-0.2734605073928833,0.07379519194364548,-0.9590482711791992,0,0,0,-1,-1,3911.902580125,unknown,2,2024-06-17T17:31:40.279+02:00,2024-06-17T17:02:09.908+02:00,596,1.966004,0.8216969,1.562387,479.8037,0,0,2024-06-17T17:31:45.421+02:00
2024-06-17T17:31:47.902+02:00,1718638306.999246,53.2282706637795,10.40336585635751,32.74057,0,0.3079722,-1,-1,3.360683262580589,4.746614060717337,-9999,3919.524623791667,-0.638031005859375,-0.472564697265625,-0.8611907958984375,3919.494496791667,0.4040170803458737,-0.2663891106226956,-0.1246465995676639,-2.727860689163208,0.6954923868179321,-1.636215686798096,-0.2063677906990051,-0.5037338733673096,0.2169781923294067,XArbitraryZVertical,-0.03388289717611625,-0.1422336559305945,0.2065772893267139,0.9674437813777882,-0.26120725274086,0.1243240833282471,-0.9572430849075317,0,0,0,-1,-1,3911.902580125,unknown,2,2024-06-17T17:31:40.279+02:00,2024-06-17T17:02:09.908+02:00,596,1.966004,0.8216969,1.562387,479.8037,0,0,2024-06-17T17:31:45.421+02:00
2024-06-17T17:31:47.938+02:00,1718638306.999246,53.2282706637795,10.40336585635751,32.74057,0,0.3079722,-1,-1,3.360683262580589,4.746614060717337,-9999,3919.559771791667,-0.70635986328125,-0.158203125,-1.008804321289062,3919.554750791667,0.2077855060625804,-0.2361175427106307,-0.3078947506868778,-4.975199222564697,1.891599416732788,-2.713160991668701,-0.4437124133110046,-0.624983012676239,0.00958561897277832,XArbitraryZVertical,-0.139381065965932,-0.1315557315283404,0.1197298604942259,0.9741307460284552,-0.2229288220405579,0.3030530512332916,-0.9265320301055908,0,0,0,-1,-1,3911.902580125,unknown,2,2024-06-17T17:31:40.279+02:00,2024-06-17T17:02:09.908+02:00,596,1.966004,0.8216969,1.562387,479.8037,0,0,2024-06-17T17:31:45.421+02:00
2024-06-17T17:31:47.973+02:00,1718638306.999246,53.2282706637795,10.40336585635751,32.74057,0,0.3079722,-1,-1,3.360683262580589,4.746614060717337,-9999,3919.594919791667,-0.683624267578125,0.2931060791015625,-0.9946746826171875,3919.584876791667,0.07722421735021211,-0.2126488283926675,-0.4539363291246821,-6.203611373901367,2.856426954269409,-2.844768285751343,-0.5435542464256287,-0.4715571701526642,-0.1451057195663452,XArbitraryZVertical,-0.2195953670081381,-0.1119628223375247,0.06126281779350297,0.9672068703168051,-0.189676359295845,0.4385066032409668,-0.8784844279289246,0,0,0,-1,-1,3911.902580125,unknown,2,2024-06-17T17:31:40.279+02:00,2024-06-17T17:02:09.908+02:00,596,1.966004,0.8216969,1.562387,479.8037,0,0,2024-06-17T17:31:45.421+02:00
2024-06-17T17:31:48.008+02:00,1718638306.999246,53.2282706637795,10.40336585635751,32.74057,0,0.3079722,-1,-1,3.360683262580589,4.746614060717337,-9999,3919.630066791667,-0.4047698974609375,0.8141632080078125,-0.8059844970703125,3919.615003791667,-0.06437394681027094,-0.1881826879237885,-0.6339720126987844,-6.996556758880615,3.572227954864502,-2.630908012390137,-0.4531598687171936,-0.1562381982803345,-0.1199348568916321,XArbitraryZVertical,-0.3130375662656738,-0.07923883599896672,-0.001172612365861411,0.9464286308269564,-0.1507219523191452,0.5923495888710022,-0.7914573550224304,0,0,0,-1,-1,3911.902580125,unknown,2,2024-06-17T17:31:40.279+02:00,2024-06-17T17:02:09.908+02:00,596,1.966004,0.8216969,1.562387,479.8037,0,0,2024-06-17T17:31:45.421+02:00
2024-06-17T17:31:48.043+02:00,1718638306.999246,53.2282706637795,10.40336585635751,32.74057,0,0.3079722,-1,-1,3.360683262580589,4.746614060717337,-9999,3919.665214916667,-0.1584930419921875,1.177627563476562,-0.4644317626953125,3919.645130791667,-0.2091038155081569,-0.1686364260614271,-0.8320203124462215,-7.214219093322754,4.107692241668701,-1.996461272239685,-0.2587455809116364,0.1652476787567139,-0.107408881187439,XArbitraryZVertical,-0.4085190648442494,-0.03459044332777311,-0.06127327405211674,0.9100337383250422,-0.1130195409059525,0.7392933368682861,-0.663831353187561,0,0,0,-1,-1,3911.902580125,unknown,2,2024-06-17T17:31:40.279+02:00,2024-06-17T17:02:09.908+02:00,596,1.966004,0.8216969,1.562387,479.8037,0,0,2024-06-17T17:31:45.421+02:00
2024-06-17T17:31:48.078+02:00,1718638306.999246,53.2282706637795,10.40336585635751,32.74057,0,0.3079722,-1,-1,3.360683262580589,4.746614060717337,-9999,3919.700362916667,0.0354461669921875,1.093734741210938,-0.3134002685546875,3919.675256916667,-0.3503149618512141,-0.1559189249891577,-1.032879454303142,-6.916058540344238,4.199930667877197,-1.263317108154297,-0.0789315328001976,0.3188496828079224,0.04170125722885132,XArbitraryZVertical,-0.4965568285334325,0.01910028794808374,-0.1132080184942992,0.8603780774286782,-0.0795614942908287,0.8587778210639954,-0.506132960319519,0,0,0,-1,-1,3911.902580125,unknown,2,2024-06-17T17:31:40.279+02:00,2024-06-17T17:02:09.908+02:00,596,1.966004,0.7860793,1.562387,479.8037,0,0,2024-06-17T17:31:47.992+02:00
2024-06-17T17:31:48.128+02:00,1718638306.999246,53.2282706637795,10.40336585635751,32.74057,0,0.3079722,-1,-1,3.360683262580589,4.746614060717337,-9999,3919.735510916667,0.018096923828125,1.226821899414062,-0.0420379638671875,3919.705383916667,-0.4783572526108439,-0.1444485485506333,-1.254524875940425,-7.984691619873047,4.206833839416504,-0.06013281270861626,0.07190120220184326,0.1822124123573303,-0.04305934906005859,XArbitraryZVertical,-0.5825767496511225,0.08192262054574932,-0.1501587442887859,0.7945724739057805,-0.04477106779813766,0.9504017233848572,-0.3077860176563263,0,0,0,-1,-1,3911.902580125,unknown,2,2024-06-17T17:31:40.279+02:00,2024-06-17T17:02:09.908+02:00,596,1.966004,0.7860793,1.562387,479.8037,0,0,2024-06-17T17:31:47.992+02:00
2024-06-17T17:31:48.149+02:00,1718638306.999246,53.2282706637795,10.40336585635751,32.74057,0,0.3079722,-1,-1,3.360683262580589,4.746614060717337,-9999,3919.770657916667,0.015594482421875,1.05548095703125,0.36834716796875,3919.765636916667,2.383592908653763,2.952324155255593,-1.468910479517191,-4.736114501953125,3.260296106338501,1.211140513420105,0.001646891236305237,0.1808754801750183,0.1365115642547607,XArbitraryZVertical,-0.7098713911815233,0.214543689952598,-0.1816970565681448,0.6457861402341268,0.01913559809327126,0.9948140978813171,0.09989277273416519,0,0,0,-1,-1,3911.902580125,unknown,2,2024-06-17T17:31:40.279+02:00,2024-06-17T17:02:09.908+02:00,596,1.966004,0.7860793,1.562387,479.8037,0,0,2024-06-17T17:31:47.992+02:00
2024-06-17T17:31:48.183+02:00,1718638307.999232,53.2282706637795,10.40336585635751,32.74057,0,0.3079722,-1,-1,3.360691840232547,4.746607987582628,-9999,3919.805805916667,-0.0289764404296875,0.83984375,0.5123748779296875,3919.795763916667,2.279626361916531,2.934918560025571,-1.353972873504428,-2.716450929641724,2.334192037582397,1.25422477722168,-0.02871908247470856,0.01581543684005737,0.3322043716907501,XArbitraryZVertical,-0.7314045340782882,0.2651843799537047,-0.1872593231295183,0.5997154825233353,0.04414572194218636,0.9765857458114624,0.2105506956577301,0,0,0,-1,-1,3911.902580125,unknown,2,2024-06-17T17:31:40.279+02:00,2024-06-17T17:02:09.908+02:00,596,1.966004,0.7860793,1.562387,479.8037,0,0,2024-06-17T17:31:47.992+02:00
2024-06-17T17:31:48.219+02:00,1718638307.999232,53.2282706637795,10.40336585635751,32.74057,0,0.3079722,-1,-1,3.360691840232547,4.746607987582628,-9999,3919.840953916667,0.0035858154296875,0.8615570068359375,0.7853851318359375,3919.825890916667,2.187288338513521,2.905579471715991,-1.292855468492658,-1.105208396911621,1.619130492210388,1.089950323104858,-0.1025785878300667,-0.1014081239700317,0.357878714799881,XArbitraryZVertical,-0.7367187133403944,0.3010493286573424,-0.191218673587793,0.5745001001952056,0.06415698677301407,0.9616224765777588,0.2667703330516815,0,0,0,-1,-1,3911.902580125,unknown,2,2024-06-17T17:31:40.279+02:00,2024-06-17T17:02:09.908+02:00,596,1.966004,0.7860793,1.562387,479.8037,0,0,2024-06-17T17:31:47.992+02:00
2024-06-17T17:31:48.254+02:00,1718638307.999232,53.2282706637795,10.40336585635751,32.74057,0,0.3079722,-1,-1,3.360691840232547,4.746607987582628,-9999,3919.876101916667,0.05401611328125,0.698333740234375,0.9039154052734375,3919.856016916667,2.100365019357556,2.858317414913985,-1.268859649703412,-0.2234610021114349,0.8274006843566895,0.8931916356086731,-0.07122869044542313,-0.1188859939575195,0.4893692433834076,XArbitraryZVertical,-0.7333264086630897,0.3240235483311733,-0.1932410907932321,0.5655960517899205,0.08311528712511063,0.9547623991966248,0.2855177521705627,0,0,0,-1,-1,3911.902580125,unknown,2,2024-06-17T17:31:40.279+02:00,2024-06-17T17:02:09.908+02:00,596,1.966004,0.7860793,1.562387,479.8037,0,0,2024-06-17T17:31:47.992+02:00
2024-06-17T17:31:48.289+02:00,1718638307.999232,53.2282706637795,10.40336585635751,32.74057,0,0.3079722,-1,-1,3.360691840232547,4.746607987582628,-9999,3919.911249916667,0.098663330078125,0.808013916015625,1.0543212890625,3919.886143916667,2.033359180598468,2.808559834450607,-1.258430262112628,0.01049437280744314,0.08484563231468201,0.5997224450111389,-0.04644706100225449,-0.253275454044342,0.6134897470474243,XArbitraryZVertical,-0.7293292593212062,0.3365882591302631,-0.1914327403156228,0.5640395474790367,0.1004631817340851,0.9516091346740723,0.2904256582260132,0,0,0,-1,-1,3911.902580125,unknown,2,2024-06-17T17:31:40.279+02:00,2024-06-17T17:02:09.908+02:00,596,1.966004,0.7860793,1.562387,479.8037,0,0,2024-06-17T17:31:47.992+02:00
2024-06-17T17:31:48.327+02:00,1718638307.999232,53.2282706637795,10.40336585635751,32.74057,0,0.3079722,-1,-1,3.360691840232547,4.746607987582628,-9999,3919.946396916667,0.0491180419921875,0.734100341796875,1.266265869140625,3919.916270916667,1.975594353386058,2.742351610443201,-1.263260440183319,0.6789476275444031,-0.8328158259391785,0.419403463602066,-0.01902153342962265,-0.1397889256477356,0.7568618059158325,XArbitraryZVertical,-0.7248315041949926,0.3377449806627271,-0.1850084205962637,0.5712438279207196,0.1176696047186852,0.9530823826789856,0.2789047658443451,0,0,0,-1,-1,3911.902580125,unknown,2,2024-06-17T17:31:40.279+02:00,2024-06-17T17:02:09.908+02:00,596,1.966004,0.7860793,1.562387,479.8037,0,0,2024-06-17T17:31:47.992+02:00
2024-06-17T17:31:48.359+02:00,1718638307.999232,53.2282706637795,10.40336585635751,32.74057,0,0.3079722,-1,-1,3.360691840232547,4.746607987582628,-9999,3919.981544916667,0.0360107421875,0.9316253662109375,1.689605712890625,3919.976523916667,1.890201420308586,2.556269084202261,-1.268669677440281,0.126348078250885,-2.827001333236694,0.3158718347549438,-0.1335346847772598,-0.05263680219650269,1.289685368537903,XArbitraryZVertical,-0.7252499852575822,0.3130846111458797,-0.143973240484802,0.596038791431905,0.164387971162796,0.9547058343887329,0.2480190247297287,0,0,0,-1,-1,3911.902580125,unknown,2,2024-06-17T17:31:40.279+02:00,2024-06-17T17:02:09.908+02:00,596,1.966004,0.7860793,1.562387,479.8037,0,0,2024-06-17T17:31:47.992+02:00
2024-06-17T17:31:48.395+02:00,1718638307.999232,53.2282706637795,10.40336585635751,32.74057,0,0.3079722,-1,-1,3.360691840232547,4.746607987582628,-9999,3920.016692916667,-0.085418701171875,0.96405029296875,2.363983154296875,3920.006650916667,1.849987525367923,2.407047577692641,-1.264773188808965,-0.3073230087757111,-4.549826145172119,0.4568290710449219,-0.2077846080064774,-0.1107200980186462,1.666096687316895,XArbitraryZVertical,-0.728951996390658,0.2835844309856802,-0.1007002702501355,0.614872555928643,0.2019252479076385,0.9535391926765442,0.2235822826623917,0,0,0,-1,-1,3911.902580125,unknown,2,2024-06-17T17:31:40.279+02:00,2024-06-17T17:02:09.908+02:00,596,1.966004,0.7860793,1.562387,479.8037,0,0,2024-06-17T17:31:47.992+02:00
2024-06-17T17:31:48.430+02:00,1718638307.999232,53.2282706637795,10.40336585635751,32.74057,0,0.3079722,-1,-1,3.360691840232547,4.746607987582628,-9999,3920.051840916667,-0.11358642578125,0.9370574951171875,3.0093994140625,3920.036776916667,1.909069643779302,2.299491700773064,-1.229907680206954,-2.124380111694336,-6.492588996887207,0.3019243478775024,-0.3326115608215332,0.1461191773414612,2.416824340820312,XArbitraryZVertical,-0.7446184601080986,0.2384452431807921,-0.03189971529198072,0.622631132649166,0.249420627951622,0.942457914352417,0.2226255685091019,0,0,0,-1,-1,3911.902580125,unknown,2,2024-06-17T17:31:40.279+02:00,2024-06-17T17:02:09.908+02:00,596,1.966004,0.7860793,1.562387,479.8037,0,0,2024-06-17T17:31:47.992+02:00
2024-06-17T17:31:48.465+02:00,1718638307.999232,53.2282706637795,10.40336585635751,32.74057,0,0.3079722,-1,-1,3.360691840232547,4.746607987582628,-9999,3920.086987916667,-0.9774627685546875,1.23919677734375,2.659866333007812,3920.066903916667,2.048693918826797,2.181213764934032,-1.185363932641712,-1.918567061424255,-10.14377593994141,-0.1334713399410248,-0.4922994375228882,-0.0201570987701416,2.795146942138672,XArbitraryZVertical,-0.7626048712576559,0.1618199841303775,0.06991629785268906,0.622382376942146,0.3080648183822632,0.9266359806060791,0.2155037969350815,0,0,0,-1,-1,3911.902580125,unknown,2,2024-06-17T17:31:40.279+02:00,2024-06-17T17:02:09.908+02:00,596,1.966004,0.7860793,1.562387,479.8037,0,0,2024-06-17T17:31:47.992+02:00
2024-06-17T17:31:48.500+02:00,1718638307.999232,53.2282706637795,10.40336585635751,32.74057,0,0.3079722,-1,-1,3.360691840232547,4.746607987582628,-9999,3920.122135916667,-4.615631103515625,1.700225830078125,4.042404174804688,3920.097030916667,2.15338288191969,1.935222105376909,-1.168121901884206,-1.780377507209778,-12.33851909637451,0.2520374655723572,-1.343607425689697,0.319180428981781,2.520195245742798,XArbitraryZVertical,-0.753188455331406,0.05042495864912536,0.2012722364241347,0.6242226051834054,0.3661446571350098,0.9200162291526794,0.1396710574626923,0,0,0,-1,-1,3911.902580125,unknown,2,2024-06-17T17:31:40.279+02:00,2024-06-17T17:02:09.908+02:00,596,1.966004,0.7860793,1.562387,479.8037,0,0,2024-06-17T17:31:47.992+02:00
2024-06-17T17:31:48.535+02:00,1718638307.999232,53.2282706637795,10.40336585635751,32.74057,0,0.3079722,-1,-1,3.360691840232547,4.746607987582628,-9999,3920.157283916667,2.393325805664062,0.415313720703125,1.840469360351562,3920.127156916667,2.524240090923203,2.214743182546216,-1.008651733756619,-5.759505748748779,2.752363681793213,0.01245607994496822,-10.16873645782471,0.3523722887039185,-13.51821804046631,XArbitraryZVertical,-0.8117656622173891,0.03212590522440622,0.24154717776262,0.5307158634982793,0.4262588620185852,0.8461139798164368,0.3199911415576935,0,0,0,-1,-1,3911.902580125,unknown,2,2024-06-17T17:31:40.279+02:00,2024-06-17T17:02:09.908+02:00,596,1.966004,0.7860793,1.562387,479.8037,0,0,2024-06-17T17:31:47.992+02:00
2024-06-17T17:31:48.570+02:00,1718638307.999232,53.2282706637795,10.40336585635751,32.74057,0,0.3079722,-1,-1,3.360691840232547,4.746607987582628,-9999,3920.192431916667,-0.5439453125,0.329803466796875,-0.0493621826171875,3920.187410916667,2.453638679904911,2.163239072044377,-1.02186799694565,1.88892650604248,-0.9672574996948242,-0.9788733720779419,-0.6810972690582275,-0.3255422711372375,-1.781739473342896,XArbitraryZVertical,-0.8023696754430674,0.04334827609754383,0.2403120662270729,0.5445858904198873,0.4328519403934479,0.8530842065811157,0.2913523316383362,0,0,0,-1,-1,3911.902580125,unknown,2,2024-06-17T17:31:40.279+02:00,2024-06-17T17:02:09.908+02:00,596,1.966004,0.7860793,1.562387,479.8037,0,0,2024-06-17T17:31:47.992+02:00
2024-06-17T17:31:48.605+02:00,1718638307.999232,53.2282706637795,10.40336585635751,32.74057,0,0.3079722,-1,-1,3.360691840232547,4.746607987582628,-9999,3920.227579916667,0.8643035888671875,0.5125274658203125,0.2938690185546875,3920.217536916667,2.4163594295066,2.118470745495814,-1.061138076514287,-0.2043497562408447,-0.4445542097091675,-0.5986589193344116,0.2725511193275452,-0.647279679775238,0.08595630526542664,XArbitraryZVertical,-0.791064223797613,0.03517666641225894,0.2382606147783939,0.5623271111755933,0.4165204763412476,0.872911274433136,0.254040002822876,0,0,0,-1,-1,3911.902580125,unknown,2,2024-06-17T17:31:40.279+02:00,2024-06-17T17:02:09.908+02:00,596,1.966004,0.7860793,1.562387,479.8037,0,0,2024-06-17T17:31:47.992+02:00
2024-06-17T17:31:48.640+02:00,1718638307.999232,53.2282706637795,10.40336585635751,32.74057,0,0.3079722,-1,-1,3.360691840232547,4.746607987582628,-9999,3920.262726916667,0.266510009765625,0.819183349609375,0.3350372314453125,3920.247663916667,2.480413751102221,2.163096837728919,-1.064488625617126,-0.5089875459671021,-0.2250438332557678,-0.6302748918533325,0.1415403187274933,-0.1854237914085388,0.007479161024093628,XArbitraryZVertical,-0.7968143053093492,0.02130926520388504,0.2376244654231208,0.5551282465358675,0.4023438990116119,0.8745410442352295,0.2707342505455017,0,0,0,-1,-1,3911.902580125,unknown,2,2024-06-17T17:31:40.279+02:00,2024-06-17T17:02:09.908+02:00,596,1.966004,0.7860793,1.562387,479.8037,0,0,2024-06-17T17:31:47.992+02:00
2024-06-17T17:31:48.676+02:00,1718638307.999232,53.2282706637795,10.40336585635751,32.74057,0,0.3079722,-1,-1,3.360691840232547,4.746607987582628,-9999,3920.297874916667,0.2353363037109375,1.101730346679688,0.2373046875,3920.277790916667,2.533187263981678,2.209954784153864,-1.071768281000586,-0.5987843871116638,-0.04645166546106339,-0.7501286864280701,-0.08188557624816895,-0.06350350379943848,0.04461526870727539,XArbitraryZVertical,-0.8016305031126406,0.01129398709017746,0.2318130153811029,0.5509298298518361,0.3841011524200439,0.8780481219291687,0.2854780256748199,0,0,0,-1,-1,3911.902580125,unknown,2,2024-06-17T17:31:40.279+02:00,2024-06-17T17:02:09.908+02:00,596,1.966004,0.7860793,1.562387,479.8037,0,0,2024-06-17T17:31:47.992+02:00
2024-06-17T17:31:48.711+02:00,1718638307.999232,53.2282706637795,10.40336585635751,32.74057,0,0.3079722,-1,-1,3.360691840232547,4.746607987582628,-9999,3920.333022916667,0.3408966064453125,0.7581634521484375,0.342864990234375,3920.307916916667,2.578967873496825,2.248344907821247,-1.081818697186282,0.08450301736593246,-0.04846067726612091,-0.7126533389091492,-0.1306307911872864,0.2189167737960815,-0.05715799331665039,XArbitraryZVertical,-0.8045062687848239,0.0009788659487233631,0.2267803475028818,0.5489438434262536,0.3659670948982239,0.882813572883606,0.2944625914096832,0,0,0,-1,-1,3911.902580125,unknown,2,2024-06-17T17:31:40.279+02:00,2024-06-17T17:02:09.908+02:00,596,1.966004,0.7860793,1.562387,479.8037,0,0,2024-06-17T17:31:47.992+02:00
2024-06-17T17:31:48.746+02:00,1718638307.999232,53.2282706637795,10.40336585635751,32.74057,0,0.3079722,-1,-1,3.360691840232547,4.746607987582628,-9999,3920.368170916667,0.3323974609375,0.773284912109375,0.317779541015625,3920.338043916667,2.604374862311817,2.269361060269572,-1.101870102772399,0.03174253553152084,-0.03389374539256096,-0.8238332271575928,-0.01924344897270203,-0.1070810556411743,0.05632564425468445,XArbitraryZVertical,-0.8032770105437228,-0.008244847701863404,0.2210881489371496,0.5529900548841754,0.3460714221000671,0.8920540809631348,0.2906438708305359,0,0,0,-1,-1,3911.902580125,unknown,2,2024-06-17T17:31:40.279+02:00,2024-06-17T17:02:09.908+02:00,596,1.966004,0.7860793,1.562387,479.8037,0,0,2024-06-17T17:31:47.992+02:00
2024-06-17T17:31:48.781+02:00,1718638307.999232,53.2282706637795,10.40336585635751,32.74057,0,0.3079722,-1,-1,3.360691840232547,4.746607987582628,-9999,3920.403318916667,0.163818359375,0.608245849609375,0.06744384765625,3920.398296916667,2.649647052271556,2.308386116461521,-1.161912387315678,1.164746522903442,-0.05442727729678154,-1.187480926513672,-0.05013957619667053,-0.2064445614814758,-0.1097248792648315,XArbitraryZVertical,-0.7955081495674952,-0.02925953183325971,0.2058781288363272,0.5691439671882216,0.2942496836185455,0.9175651073455811,0.2673786580562592,0,0,0,-1,-1,3911.902580125,unknown,2,2024-06-17T17:31:40.279+02:00,2024-06-17T17:02:09.908+02:00,596,1.966004,0.7860793,1.562387,479.8037,0,0,2024-06-17T17:31:47.992+02:00
2024-06-17T17:31:48.816+02:00,1718638307.999232,53.2282706637795,10.40336585635751,32.74057,0,0.3079722,-1,-1,3.360691840232547,4.746607987582628,-9999,3920.438465916667,-0.001220703125,0.555694580078125,0.0370635986328125,3920.428423916667,2.63713875316694,2.297228919018159,-1.225221528549577,1.76898455619812,0.07058568298816681,-1.781524181365967,-0.1535983383655548,-0.4569788575172424,-0.1928264796733856,XArbitraryZVertical,-0.7814986288508436,-0.04190367688018325,0.1937317036916792,0.5915843782297763,0.2532230019569397,0.9408808946609497,0.2249920517206192,0,0,0,-1,-1,3911.902580125,unknown,2,2024-06-17T17:31:40.279+02:00,2024-06-17T17:02:09.908+02:00,596,1.966004,0.7860793,1.562387,479.8037,0,0,2024-06-17T17:31:47.992+02:00
2024-06-17T17:31:48.852+02:00,1718638307.999232,53.2282706637795,10.40336585635751,32.74057,0,0.3079722,-1,-1,3.360691840232547,4.746607987582628,-9999,3920.473613916667,-0.286529541015625,0.79730224609375,-0.0977630615234375,3920.458550916667,2.647782709152696,2.309687216514092,-1.305471154445186,1.582562804222107,0.1647292822599411,-2.327162265777588,-0.2841255366802216,-0.3288379311561584,-0.1707699447870255,XArbitraryZVertical,-0.7646277204790612,-0.06036422099190226,0.1754776566221139,0.6171775589886981,0.1938392817974091,0.9650073051452637,0.1765987873077393,0,0,0,-1,-1,3911.902580125,unknown,2,2024-06-17T17:31:40.279+02:00,2024-06-17T17:02:09.908+02:00,596,1.966004,0.7860793,1.562387,479.8037,0,0,2024-06-17T17:31:47.992+02:00
2024-06-17T17:31:48.887+02:00,1718638307.999232,53.2282706637795,10.40336585635751,32.74057,0,0.3079722,-1,-1,3.360691840232547,4.746607987582628,-9999,3920.508761916667,-0.3893280029296875,0.921478271484375,0.08074951171875,3920.488676916667,2.763712199398769,2.436215704732632,-1.389406819669216,1.140005707740784,0.6953555345535278,-2.736405849456787,-0.4273485541343689,-0.1821109652519226,-0.2250853925943375,XArbitraryZVertical,-0.7496569549533162,-0.08178083799620206,0.1478129867635112,0.6399043149298279,0.1169542446732521,0.9835940003395081,0.1373473107814789,0,0,0,-1,-1,3911.902580125,unknown,2,2024-06-17T17:31:40.279+02:00,2024-06-17T17:02:09.908+02:00,596,1.966004,0.7860793,1.562387,479.8037,0,0,2024-06-17T17:31:47.992+02:00
2024-06-17T17:31:48.922+02:00,1718638307.999232,53.2282706637795,10.40336585635751,32.74057,0,0.3079722,-1,-1,3.360691840232547,4.746607987582628,-9999,3920.543909916667,-0.597198486328125,1.084060668945312,0.245086669921875,3920.518803916667,-3.060514754360458,2.912862039401874,-1.45660506117989,0.9964824914932251,0.6928535103797913,-3.04895281791687,-0.4151637554168701,-0.07200890779495239,-0.0302266925573349,XArbitraryZVertical,-0.7377426994124875,-0.105942346364167,0.1118948662971464,0.6572606211081835,0.02583577670156956,0.9934872388839722,0.1109761446714401,0,0,0,-1,-1,3911.902580125,unknown,2,2024-06-17T17:31:40.279+02:00,2024-06-17T17:02:09.908+02:00,596,1.966004,0.7860793,1.562387,479.8037,0,0,2024-06-17T17:31:47.992+02:00
2024-06-17T17:31:48.957+02:00,1718638307.999232,53.2282706637795,10.40336585635751,32.74057,0,0.3079722,-1,-1,3.360691840232547,4.746607987582628,-9999,3920.579057916667,-0.677642822265625,0.901947021484375,0.614532470703125,3920.548930916667,-2.085107227820118,-2.380966654835682,-1.4768858922469,1.67051374912262,0.4650426506996155,-2.883396863937378,-0.515677809715271,0.09858357906341553,0.07263469696044922,XArbitraryZVertical,-0.7190212928212169,-0.1302804627205824,0.07793183171138665,0.6782049950912896,-0.06464442610740662,0.9955936670303345,0.06792923808097839,0,0,0,-1,-1,3911.902580125,unknown,2,2024-06-17T17:31:40.279+02:00,2024-06-17T17:02:09.908+02:00,596,1.966004,0.7860793,1.562387,479.8037,0,0,2024-06-17T17:31:47.992+02:00
2024-06-17T17:31:48.992+02:00,1718638307.999232,53.2282706637795,10.40336585635751,32.74057,0,0.3079722,-1,-1,3.360691840232547,4.746607987582628,-9999,3920.614204916667,-0.729461669921875,1.276519775390625,0.2580108642578125,3920.609183916667,-1.438540038817115,-1.707232681387676,-1.3434343055092,0.05940552428364754,0.8865835070610046,-2.421247959136963,-0.506316065788269,0.1899659037590027,0.3654290437698364,XArbitraryZVertical,-0.6963797012853591,-0.1743117479134622,0.01388894748341351,0.6960444073189676,-0.2233134657144547,0.97426438331604,0.0306585468351841,0,0,0,-1,-1,3911.902580125,unknown,2,2024-06-17T17:31:40.279+02:00,2024-06-17T17:02:09.908+02:00,596,1.966004,0.7860793,1.562387,479.8037,0,0,2024-06-17T17:31:47.992+02:00
2024-06-17T17:31:49.027+02:00,1718638307.999232,53.2282706637795,10.40336585635751,32.74057,0,0.3079722,-1,-1,3.360691840232547,4.746607987582628,-9999,3920.649352916667,-0.5334014892578125,1.210601806640625,0.1398162841796875,3920.639310916667,-1.40484267911855,-1.645291829725157,-1.275229350101654,-0.1862374097108841,1.10944402217865,-2.135316133499146,-0.3740305304527283,0.2892277240753174,0.1338841915130615,XArbitraryZVertical,-0.6895911791602044,-0.1878924845173627,-0.02012736013188182,0.6991103818940407,-0.2904744744300842,0.9566371440887451,0.02167916111648083,0,0,0,-1,-1,3911.902580125,unknown,2,2024-06-17T17:31:40.279+02:00,2024-06-17T17:02:09.908+02:00,596,1.966004,0.7860793,1.562387,479.8037,0,0,2024-06-17T17:31:47.992+02:00
2024-06-17T17:31:49.063+02:00,1718638307.999232,53.2282706637795,10.40336585635751,32.74057,0,0.3079722,-1,-1,3.360691840232547,4.746607987582628,-9999,3920.684500416667,-0.404815673828125,1.266571044921875,0.245086669921875,3920.669437416667,-1.436731437333549,-1.637972842912967,-1.212589856076886,-0.6053120493888855,1.3751220703125,-2.032695293426514,-0.1410861611366272,0.2799645066261292,0.1430766582489014,XArbitraryZVertical,-0.688064313056455,-0.1957920443579941,-0.05600527952993549,0.6964886060657143,-0.3498043119907379,0.9365271329879761,0.02353404648602009,0,0,0,-1,-1,3911.902580125,unknown,2,2024-06-17T17:31:40.279+02:00,2024-06-17T17:02:09.908+02:00,596,1.966004,0.7860793,1.562387,479.8037,0,0,2024-06-17T17:31:47.992+02:00
2024-06-17T17:31:49.098+02:00,1718638307.999232,53.2282706637795,10.40336585635751,32.74057,0,0.3079722,-1,-1,3.360691840232547,4.746607987582628,-9999,3920.719648416667,-0.29376220703125,1.115402221679688,0.36627197265625,3920.699563416667,-1.467399782717134,-1.620470254905364,-1.149137602803566,-0.4904849827289581,1.623244762420654,-2.081773281097412,0.02754402160644531,0.3536714315414429,0.2475155591964722,XArbitraryZVertical,-0.6854512853440781,-0.2007921556677512,-0.09505490707228237,0.6934000286938372,-0.4087695777416229,0.9124113321304321,0.02032190933823586,0,0,0,-1,-1,3911.902580125,unknown,2,2024-06-17T17:31:40.279+02:00,2024-06-17T17:02:09.908+02:00,596,1.966004,0.7860793,1.562387,479.8037,0,0,2024-06-17T17:31:47.992+02:00
2024-06-17T17:31:49.133+02:00,1718638308.999218,53.2282706637795,10.40336585635751,32.74057,0,0.3079722,-1,-1,3.360688586901404,4.74661029100341,-9999,3920.754795416667,-0.3295440673828125,1.024002075195312,0.3519287109375,3920.729690416667,-1.504157847664916,-1.605567294389384,-1.087363183015742,-0.822079598903656,1.524489521980286,-1.952127814292908,0.1707783639431,0.2299978137016296,0.3501129150390625,XArbitraryZVertical,-0.6829709530725785,-0.2040347901581945,-0.1344419510382833,0.6883645714576706,-0.4645405411720276,0.8854043483734131,0.01615903712809086,0,0,0,-1,-1,3911.902580125,unknown,2,2024-06-17T17:31:40.279+02:00,2024-06-17T17:02:09.908+02:00,596,1.966004,0.7860793,1.562387,479.8037,0,0,2024-06-17T17:31:47.992+02:00
2024-06-17T17:31:49.168+02:00,1718638308.999218,53.2282706637795,10.40336585635751,32.74057,0,0.3079722,-1,-1,3.360688586901404,4.74661029100341,-9999,3920.789943416667,-0.3431549072265625,1.08294677734375,0.256561279296875,3920.759817416667,-1.568339534147991,-1.617252761435067,-1.030958497279598,-1.416748523712158,1.443591833114624,-1.712469696998596,0.1924126744270325,0.1655385494232178,0.3364053964614868,XArbitraryZVertical,-0.6854482143973091,-0.2051723203852359,-0.1718410725440013,0.6771526217825088,-0.5134422779083252,0.8577920198440552,0.02386987209320068,0,0,0,-1,-1,3911.902580125,unknown,2,2024-06-17T17:31:40.279+02:00,2024-06-17T17:02:09.908+02:00,596,1.966004,0.7860793,1.562387,479.8037,0,0,2024-06-17T17:31:47.992+02:00
2024-06-17T17:31:49.203+02:00,1718638308.999218,53.2282706637795,10.40336585635751,32.74057,0,0.3079722,-1,-1,3.360688586901404,4.74661029100341,-9999,3920.825091416667,-0.3543701171875,1.070480346679688,0.25897216796875,3920.820070416667,-1.73681902207105,-1.666879272366913,-0.9381173082581874,-1.747049808502197,1.464622497558594,-1.050918102264404,0.2494230270385742,0.2819936275482178,0.1942188739776611,XArbitraryZVertical,-0.7003553703326866,-0.1945917455800142,-0.2415831143721291,0.6428639507968961,-0.5885800719261169,0.8064462542533875,0.05672718584537506,0,0,0,-1,-1,3911.902580125,unknown,2,2024-06-17T17:31:40.279+02:00,2024-06-17T17:02:09.908+02:00,596,1.966004,0.7860793,1.562387,479.8037,0,0,2024-06-17T17:31:47.992+02:00
2024-06-17T17:31:49.238+02:00,1718638308.999218,53.2282706637795,10.40336585635751,32.74057,0,0.3079722,-1,-1,3.360688586901404,4.74661029100341,-9999,3920.860239416667,-0.370361328125,0.9599151611328125,0.265838623046875,3920.850197416667,-1.818887443670441,-1.689398482220487,-0.9054593368179296,-1.723172903060913,1.401339888572693,-0.7817972302436829,0.2404747605323792,0.2331886291503906,0.1932060718536377,XArbitraryZVertical,-0.7090399404010463,-0.1838058593866609,-0.2702879502410884,0.6248377313964063,-0.6129875779151917,0.7867087721824646,0.07304446399211884,0,0,0,-1,-1,3911.902580125,unknown,2,2024-06-17T17:31:40.279+02:00,2024-06-17T17:02:09.908+02:00,596,1.966004,0.7860793,1.562387,479.8037,0,0,2024-06-17T17:31:47.992+02:00
2024-06-17T17:31:49.273+02:00,1718638308.999218,53.2282706637795,10.40336585635751,32.74057,0,0.3079722,-1,-1,3.360688586901404,4.74661029100341,-9999,3920.895387416667,-0.3769073486328125,0.8974456787109375,0.2781524658203125,3920.880323416667,-1.8957918655388,-1.708755238947845,-0.8789427431531093,-1.722423791885376,1.231559872627258,-0.5548613667488098,0.2682873010635376,0.1634984016418457,0.1824989318847656,XArbitraryZVertical,-0.7173163141645935,-0.1712436049132477,-0.2954826317003083,0.6073079760843252,-0.6319042444229126,0.7700648307800293,0.08773413300514221,0,0,0,-1,-1,3911.902580125,unknown,2,2024-06-17T17:31:40.279+02:00,2024-06-17T17:02:09.908+02:00,596,1.966004,0.7860793,1.562387,479.8037,0,0,2024-06-17T17:31:47.992+02:00
2024-06-17T17:31:49.309+02:00,1718638308.999218,53.2282706637795,10.40336585635751,32.74057,0,0.3079722,-1,-1,3.360688586901404,4.74661029100341,-9999,3920.930534416667,-0.397064208984375,0.89727783203125,0.2220306396484375,3920.910450416667,-1.974767884289391,-1.736623376368383,-0.8558331345040057,-1.854383707046509,0.9352473616600037,-0.4842520952224731,0.2630207538604736,0.1330660581588745,0.1654189676046371,XArbitraryZVertical,-0.7272562517653743,-0.1587664538347741,-0.3161418628762667,0.5881715113164636,-0.6465960741043091,0.7551173567771912,0.1082168817520142,0,0,0,-1,-1,3911.902580125,unknown,2,2024-06-17T17:31:40.279+02:00,2024-06-17T17:02:09.908+02:00,596,1.966004,0.7860793,1.562387,479.8037,0,0,2024-06-17T17:31:47.992+02:00
2024-06-17T17:31:49.344+02:00,1718638308.999218,53.2282706637795,10.40336585635751,32.74057,0,0.3079722,-1,-1,3.360688586901404,4.74661029100341,-9999,3920.965682416667,-0.412841796875,0.942962646484375,0.1199951171875,3920.940577416667,-2.056992876679374,-1.773647928933231,-0.8319652176437379,-2.006671667098999,0.6516407132148743,-0.4157353043556213,0.2625523209571838,0.1580216288566589,0.08636033535003662,XArbitraryZVertical,-0.7390303521310047,-0.147204881552594,-0.3334193880332447,0.5665654622056085,-0.6596164703369141,0.7392562031745911,0.1356702744960785,0,0,0,-1,-1,3911.902580125,unknown,2,2024-06-17T17:31:40.279+02:00,2024-06-17T17:02:09.908+02:00,596,1.966004,0.7860793,1.562387,479.8037,0,0,2024-06-17T17:31:47.992+02:00
2024-06-17T17:31:49.379+02:00,1718638308.999218,53.2282706637795,10.40336585635751,32.74057,0,0.3079722,-1,-1,3.360688586901404,4.74661029100341,-9999,3921.000830416667,-0.485382080078125,1.09075927734375,0.138580322265625,3920.970703416667,-2.137469542321542,-1.818165611885761,-0.8074510985755899,-1.831985592842102,0.3001055121421814,-0.3441454470157623,0.2621862888336182,0.2037574052810669,-0.04041767120361328,XArbitraryZVertical,-0.7521451048935236,-0.137538251473573,-0.3461846198239881,0.5436149282906408,-0.6702978014945984,0.7225273847579956,0.1692780554294586,0,0,0,-1,-1,3911.902580125,unknown,2,2024-06-17T17:31:40.279+02:00,2024-06-17T17:02:09.908+02:00,596,1.966004,0.7860793,1.562387,479.8037,0,0,2024-06-17T17:31:47.992+02:00
2024-06-17T17:31:49.414+02:00,1718638308.999218,53.2282706637795,10.40336585635751,32.74057,0,0.3079722,-1,-1,3.360688586901404,4.74661029100341,-9999,3921.035978416667,-0.53271484375,1.098922729492188,0.2338104248046875,3921.030957416667,-2.208126884395728,-1.872808493894843,-0.7829058204531595,0.02744758874177933,-0.382241278886795,0.0913122370839119,0.1570997834205627,0.3978376984596252,-0.04852378368377686,XArbitraryZVertical,-0.7666274620021636,-0.1330628015404698,-0.3509825629519555,0.5209490398192839,-0.6767836213111877,0.7053422331809998,0.2108467519283295,0,0,0,-1,-1,3911.902580125,unknown,2,2024-06-17T17:31:40.279+02:00,2024-06-17T17:02:09.908+02:00,596,1.966004,0.7860793,1.562387,479.8037,0,0,2024-06-17T17:31:47.992+02:00
2024-06-17T17:31:49.449+02:00,1718638308.999218,53.2282706637795,10.40336585635751,32.74057,0,0.3079722,-1,-1,3.360688586901404,4.74661029100341,-9999,3921.071126416667,-0.6262969970703125,1.028182983398438,0.1853179931640625,3921.061083416667,-2.208567350088441,-1.889451177804696,-0.7908868750318531,0.02092970348894596,-0.6712571978569031,0.4096606075763702,0.1014988422393799,0.3580229878425598,0.01226459443569183,XArbitraryZVertical,-0.7694158770923999,-0.1347371449623251,-0.3425615571408825,0.5220120692147199,-0.6678134202957153,0.7109771966934204,0.220309779047966,0,0,0,-1,-1,3911.902580125,unknown,2,2024-06-17T17:31:40.279+02:00,2024-06-17T17:02:09.908+02:00,596,1.966004,0.7860793,1.562387,479.8037,0,0,2024-06-17T17:31:47.992+02:00
2024-06-17T17:31:49.484+02:00,1718638308.999218,53.2282706637795,10.40336585635751,32.74057,0,0.3079722,-1,-1,3.360688586901404,4.74661029100341,-9999,3921.106273416667,-0.6916961669921875,1.156158447265625,0.0758056640625,3921.091210416667,-2.219399398512159,-1.917827992182646,-0.8056924246172237,-0.1519991904497147,-0.6718299388885498,0.7035711407661438,-0.001295506954193115,0.3340179920196533,-0.07273626327514648,XArbitraryZVertical,-0.7745912930352703,-0.1333781627267428,-0.3304582743918728,0.5225092508212478,-0.6513228416442871,0.7213103771209717,0.2355628162622452,0,0,0,-1,-1,3911.902580125,unknown,2,2024-06-17T17:31:40.279+02:00,2024-06-17T17:02:09.908+02:00,596,1.966004,0.7860793,1.562387,479.8037,0,0,2024-06-17T17:31:47.992+02:00
2024-06-17T17:31:49.519+02:00,1718638308.999218,53.2282706637795,10.40336585635751,32.74057,0,0.3079722,-1,-1,3.360688586901404,4.74661029100341,-9999,3921.141421416667,-0.65545654296875,1.054275512695312,0.0328369140625,3921.121337416667,-2.221872488786025,-1.931198971015167,-0.8436237063891248,0.07769198715686798,-0.6042068600654602,0.9954451322555542,-0.06967413425445557,0.4114055633544922,-0.1700820922851562,XArbitraryZVertical,-0.7757382685686124,-0.1242751101915171,-0.3157002617334109,0.5320894417743829,-0.6220524907112122,0.7470569014549255,0.2344283312559128,0,0,0,-1,-1,3911.902580125,unknown,2,2024-06-17T17:31:40.279+02:00,2024-06-17T17:02:09.908+02:00,596,1.966004,0.7860793,1.562387,479.8037,0,0,2024-06-17T17:31:47.992+02:00
2024-06-17T17:31:49.555+02:00,1718638308.999218,53.2282706637795,10.40336585635751,32.74057,0,0.3079722,-1,-1,3.360688586901404,4.74661029100341,-9999,3921.176569416667,-0.6598968505859375,0.8939208984375,0.059539794921875,3921.151463416667,-2.220482344114582,-1.937435055624209,-0.8942755818467506,-0.03954296186566353,-0.4940143823623657,1.25356137752533,-0.07098370790481567,0.2745198011398315,-0.1916013956069946,XArbitraryZVertical,-0.774543277497553,-0.1109137257359318,-0.2990872396918897,0.5461938177210311,-0.5844727754592896,0.779755711555481,0.2244382798671722,0,0,0,-1,-1,3911.902580125,unknown,2,2024-06-17T17:31:40.279+02:00,2024-06-17T17:02:09.908+02:00,596,1.966004,0.7860793,1.562387,479.8037,0,0,2024-06-17T17:31:47.992+02:00
2024-06-17T17:31:49.590+02:00,1718638308.999218,53.2282706637795,10.40336585635751,32.74057,0,0.3079722,-1,-1,3.360688586901404,4.74661029100341,-9999,3921.211717416667,-0.625396728515625,0.8639678955078125,-0.0062255859375,3921.181590416667,-2.243071063850234,-1.962551622980413,-0.9446432472959465,-0.6105777621269226,-0.4068335294723511,1.543315887451172,-0.1138982772827148,0.08532679080963135,-0.1607960164546967,XArbitraryZVertical,-0.7766016110818613,-0.09363124944123816,-0.2817282881603511,0.5556549508722994,-0.5416346192359924,0.8102878928184509,0.2237537503242493,0,0,0,-1,-1,3911.902580125,unknown,2,2024-06-17T17:31:40.279+02:00,2024-06-17T17:02:09.908+02:00,596,1.966004,0.7860793,1.562387,479.8037,0,0,2024-06-17T17:31:47.992+02:00
2024-06-17T17:31:49.625+02:00,1718638308.999218,53.2282706637795,10.40336585635751,32.74057,0,0.3079722,-1,-1,3.360688586901404,4.74661029100341,-9999,3921.246865416667,-0.80157470703125,0.8746490478515625,0.013824462890625,3921.241843416667,-2.4064517024566,-2.10712675821174,-1.022238938574212,-1.171698927879333,-0.3398131132125854,1.755581498146057,-0.2651860117912292,0.01792275905609131,-0.3314285576343536,XArbitraryZVertical,-0.7943845568150674,-0.04670591664653546,-0.2496893492334713,0.5517488990628455,-0.4482386112213135,0.8532776832580566,0.2664565443992615,0,0,0,-1,-1,3911.902580125,unknown,2,2024-06-17T17:31:40.279+02:00,2024-06-17T17:02:09.908+02:00,596,1.966004,0.7860793,1.562387,479.8037,0,0,2024-06-17T17:31:47.992+02:00
2024-06-17T17:31:49.660+02:00,1718638308.999218,53.2282706637795,10.40336585635751,32.74057,0,0.3079722,-1,-1,3.360688586901404,4.74661029100341,-9999,3921.282012416667,-0.7591400146484375,0.909637451171875,0.1509552001953125,3921.271970416667,-2.527121163170122,-2.210494795265068,-1.046237918506836,-1.804766416549683,0.02830526046454906,1.755305290222168,-0.4189504683017731,0.1212255358695984,-0.1518933475017548,XArbitraryZVertical,-0.8056507164118383,-0.02033082371477152,-0.2356607388097854,0.543118453693001,-0.4018045663833618,0.8655452132225037,0.2989728450775146,0,0,0,-1,-1,3911.902580125,unknown,2,2024-06-17T17:31:40.279+02:00,2024-06-17T17:02:09.908+02:00,596,1.966004,0.7860793,1.562387,479.8037,0,0,2024-06-17T17:31:47.992+02:00
2024-06-17T17:31:49.695+02:00,1718638308.999218,53.2282706637795,10.40336585635751,32.74057,0,0.3079722,-1,-1,3.360688586901404,4.74661029100341,-9999,3921.317160416667,-0.7259979248046875,0.747894287109375,0.295318603515625,3921.302097416667,-2.64320590530313,-2.310821037113805,-1.061858886581763,-0.9563712477684021,-0.3882766664028168,1.771498680114746,-0.3636544644832611,0.001645803451538086,-0.13998743891716,XArbitraryZVertical,-0.8150251501908866,0.003430493746117272,-0.2229868021964505,0.5347889095912028,-0.3598105311393738,0.8732627034187317,0.3285555243492126,0,0,0,-1,-1,3911.902580125,unknown,2,2024-06-17T17:31:40.279+02:00,2024-06-17T17:02:09.908+02:00,596,1.966004,0.7860793,1.562387,479.8037,0,0,2024-06-17T17:31:47.992+02:00
2024-06-17T17:31:49.730+02:00,1718638308.999218,53.2282706637795,10.40336585635751,32.74057,0,0.3079722,-1,-1,3.360688586901404,4.74661029100341,-9999,3921.352308416667,-0.7640533447265625,0.82098388671875,-0.090911865234375,3921.332223416667,-2.743674666611908,-2.411992806335206,-1.082690163808864,-0.6304388046264648,-0.487825870513916,1.597978115081787,-0.4182586669921875,-0.1027963161468506,-0.05964568257331848,XArbitraryZVertical,-0.8211616290615679,0.0219673913691519,-0.2045753228996094,0.5323157836434066,-0.3125916421413422,0.8832225799560547,0.3495779633522034,0,0,0,-1,-1,3911.902580125,unknown,2,2024-06-17T17:31:40.279+02:00,2024-06-17T17:02:09.908+02:00,596,1.966004,0.7860793,1.562387,479.8037,0,0,2024-06-17T17:31:47.992+02:00
2024-06-17T17:31:49.765+02:00,1718638308.999218,53.2282706637795,10.40336585635751,32.74057,0,0.3079722,-1,-1,3.360688586901404,4.74661029100341,-9999,3921.387456416667,-0.6616058349609375,0.1685638427734375,-0.2616119384765625,3921.362350416667,-2.837427707180578,-2.504103985325508,-1.098548659233788,-0.3266139328479767,-0.08585726469755173,1.322551369667053,-0.4933129847049713,-0.06956440210342407,-0.4564573168754578,XArbitraryZVertical,-0.8253792040856425,0.03901078126212187,-0.1890851759353443,0.5305412190683375,-0.2707403004169464,0.8905481100082397,0.3655453324317932,0,0,0,-1,-1,3911.902580125,unknown,2,2024-06-17T17:31:40.279+02:00,2024-06-17T17:02:09.908+02:00,596,1.966004,0.7860793,1.562387,479.8037,0,0,2024-06-17T17:31:47.992+02:00
2024-06-17T17:31:49.800+02:00,1718638308.999218,53.2282706637795,10.40336585635751,32.74057,0,0.3079722,-1,-1,3.360688586901404,4.74661029100341,-9999,3921.422603416667,-0.3375396728515625,0.9973297119140625,-0.232513427734375,3921.392477416667,-2.910433735561272,-2.553614140550075,-1.092599692660895,-1.012300729751587,0.33335280418396,0.869457483291626,-0.4293184578418732,-0.6912779808044434,-0.6703123450279236,XArbitraryZVertical,-0.8296977391445046,0.05523118915534969,-0.1886021853019558,0.5224750833787337,-0.2552517652511597,0.8878262639045715,0.3828976452350616,0,0,0,-1,-1,3911.902580125,unknown,2,2024-06-17T17:31:40.279+02:00,2024-06-17T17:02:09.908+02:00,596,1.966004,0.7860793,1.562387,479.8037,0,0,2024-06-17T17:31:47.992+02:00
2024-06-17T17:31:49.836+02:00,1718638308.999218,53.2282706637795,10.40336585635751,32.74057,0,0.3079722,-1,-1,3.360688586901404,4.74661029100341,-9999,3921.457751416667,-0.287078857421875,0.604583740234375,0.1874542236328125,3921.452730416667,-2.799635586966404,-2.404570226936414,-1.194544993165409,4.114433765411377,0.6310604810714722,0.5465183258056641,0.01883025467395782,0.1960196495056152,-0.2773871123790741,XArbitraryZVertical,-0.7945825384049316,0.06838939915779937,-0.2042541021248614,0.567663452282109,-0.246949166059494,0.9300485849380493,0.2720770537853241,0,0,0,-1,-1,3911.902580125,unknown,2,2024-06-17T17:31:40.279+02:00,2024-06-17T17:02:09.908+02:00,596,1.966004,0.7860793,1.562387,479.8037,0,0,2024-06-17T17:31:47.992+02:00
2024-06-17T17:31:49.871+02:00,1718638308.999218,53.2282706637795,10.40336585635751,32.74057,0,0.3079722,-1,-1,3.360688586901404,4.74661029100341,-9999,3921.492899416667,-0.5586090087890625,0.45440673828125,0.2386322021484375,3921.482857416667,-2.54809362163415,-2.149914208311831,-1.276322008190652,2.888189792633057,0.4952589273452759,-0.1147264167666435,-0.1689683496952057,-0.6308289170265198,0.07579204440116882,XArbitraryZVertical,-0.7584631103066669,0.06445803912676182,-0.212214637720344,0.612816203693569,-0.242912083864212,0.9569548368453979,0.1588422507047653,0,0,0,-1,-1,3911.902580125,unknown,2,2024-06-17T17:31:40.279+02:00,2024-06-17T17:02:09.908+02:00,596,1.966004,0.7860793,1.562387,479.8037,0,0,2024-06-17T17:31:47.992+02:00
2024-06-17T17:31:49.906+02:00,1718638308.999218,53.2282706637795,10.40336585635751,32.74057,0,0.3079722,-1,-1,3.360688586901404,4.74661029100341,-9999,3921.528047416667,-0.4753875732421875,0.9830474853515625,0.062835693359375,3921.512983416667,-2.375659803491087,-1.954018557840289,-1.285188197646725,1.060551166534424,1.524074077606201,-0.7243337035179138,-0.3136155903339386,-0.2917810678482056,0.0259556919336319,XArbitraryZVertical,-0.7407396604401083,0.06307002538540597,-0.2298593364831339,0.6280857340945283,-0.2613050937652588,0.9594904780387878,0.105346143245697,0,0,0,-1,-1,3911.902580125,unknown,2,2024-06-17T17:31:40.279+02:00,2024-06-17T17:02:09.908+02:00,596,1.966004,0.7860793,1.562387,479.8037,0,0,2024-06-17T17:31:47.992+02:00
2024-06-17T17:31:49.941+02:00,1718638308.999218,53.2282706637795,10.40336585635751,32.74057,0,0.3079722,-1,-1,3.360688586901404,4.74661029100341,-9999,3921.563195416667,-0.429107666015625,0.79583740234375,0.2183074951171875,3921.543110416667,-2.155784854122142,-1.703547075655269,-1.271133320171137,2.684756517410278,0.9933696389198303,-1.141135096549988,-0.1617901921272278,0.09430772066116333,0.07339966297149658,XArbitraryZVertical,-0.7184571961564036,0.05792818721719052,-0.255581875827425,0.6443148169982901,-0.2926012873649597,0.9554360508918762,0.03907283395528793,0,0,0,-1,-1,3911.902580125,unknown,2,2024-06-17T17:31:40.279+02:00,2024-06-17T17:02:09.908+02:00,596,1.966004,0.7860793,1.562387,479.8037,0,0,2024-06-17T17:31:47.992+02:00
2024-06-17T17:31:49.976+02:00,1718638308.999218,53.2282706637795,10.40336585635751,32.74057,0,0.3079722,-1,-1,3.360688586901404,4.74661029100341,-9999,3921.598342416667,-0.4657745361328125,0.892822265625,0.233306884765625,3921.573237416667,-1.854725046297872,-1.396298089544984,-1.230476918902755,2.906347751617432,0.4361013472080231,-1.290749669075012,-0.10038822889328,-0.1468107104301453,0.2762578129768372,XArbitraryZVertical,-0.6852159569108797,0.03878039015903695,-0.2779047355511576,0.6721191922029246,-0.328719437122345,0.9426481127738953,-0.05795034766197205,0,0,0,-1,-1,3911.902580125,unknown,2,2024-06-17T17:31:40.279+02:00,2024-06-17T17:02:09.908+02:00,596,1.966004,0.7860793,1.562387,479.8037,0,0,2024-06-17T17:31:47.992+02:00
2024-06-17T17:31:50.011+02:00,1718638308.999218,53.2282706637795,10.40336585635751,32.74057,0,0.3079722,-1,-1,3.360688586901404,4.74661029100341,-9999,3921.633490416667,-0.2920684814453125,0.9945068359375,0.41937255859375,3921.603364416667,-1.723646782082481,-1.265723501290227,-1.177136904354125,1.272275924682617,0.1673624813556671,-1.411296606063843,-0.1120614409446716,-0.115329921245575,0.3219667673110962,XArbitraryZVertical,-0.664841573245789,0.01950835331910377,-0.2952729606741267,0.6858709339679565,-0.3658590614795685,0.9235116243362427,-0.1152102127671242,0,0,0,-1,-1,3911.902580125,unknown,2,2024-06-17T17:31:40.279+02:00,2024-06-17T17:02:09.908+02:00,596,1.966004,0.7860793,1.562387,479.8037,0,0,2024-06-17T17:31:47.992+02:00
2024-06-17T17:31:50.047+02:00,1718638308.999218,53.2282706637795,10.40336585635751,32.74057,0,0.3079722,-1,-1,3.360688586901404,4.74661029100341,-9999,3921.6686385,-0.393890380859375,0.80810546875,0.3142547607421875,3921.6636175,-1.590514989854248,-1.162682117225952,-1.059774855457897,1.146772027015686,-0.9738405346870422,-1.322666168212891,0.1547886431217194,-0.0293804407119751,0.60593581199646,XArbitraryZVertical,-0.6340681351502722,-0.03011726836436933,-0.3205919162681848,0.703044396560882,-0.4489018023014069,0.8722453713417053,-0.194101095199585,0,0,0,-1,-1,3911.902580125,unknown,2,2024-06-17T17:31:40.279+02:00,2024-06-17T17:02:09.908+02:00,596,1.966004,0.7860793,1.562387,479.8037,0,0,2024-06-17T17:31:47.992+02:00
2024-06-17T17:31:50.082+02:00,1718638308.999218,53.2282706637795,10.40336585635751,32.74057,0,0.3079722,-1,-1,3.360688586901404,4.74661029100341,-9999,3921.7037865,-0.5189208984375,1.146392822265625,0.0110626220703125,3921.6937445,-1.589153950261311,-1.189615228870907,-1.015221811252421,0.3535526692867279,-0.7359611988067627,-1.357475399971008,-0.01391860842704773,0.02274739742279053,0.2972266674041748,XArbitraryZVertical,-0.6314912704631243,-0.05578539279591542,-0.3256680801318224,0.7014606914524469,-0.4895756244659424,0.8495975732803345,-0.1962135285139084,0,0,0,-1,-1,3911.902580125,unknown,2,2024-06-17T17:31:40.279+02:00,2024-06-17T17:02:09.908+02:00,596,1.966004,0.7860793,1.562387,479.8037,0,0,2024-06-17T17:31:47.992+02:00
2024-06-17T17:31:50.118+02:00,1718638308.999218,53.2282706637795,10.40336585635751,32.74057,0,0.3079722,-1,-1,3.360688586901404,4.74661029100341,-9999,3921.7389345,-0.516082763671875,1.021224975585938,0.0590057373046875,3921.7238705,-1.584463975091533,-1.205381338967394,-0.9711368810229605,0.8302019238471985,-0.7340588569641113,-1.188801884651184,0.04150396585464478,0.313616931438446,0.2360146194696426,XArbitraryZVertical,-0.6269197061681321,-0.07834625275143532,-0.3329088567947741,0.7000036628833094,-0.5270995497703552,0.8255278468132019,-0.2016671001911163,0,0,0,-1,-1,3911.902580125,unknown,2,2024-06-17T17:31:40.279+02:00,2024-06-17T17:02:09.908+02:00,596,1.966004,0.7860793,1.562387,479.8037,0,0,2024-06-17T17:31:47.992+02:00
2024-06-17T17:31:50.152+02:00,1718638309.999206,53.2282706637795,10.40336585635751,32.74057,0,0.3079722,-1,-1,3.360706450988321,4.746597642846329,-9999,3921.7740815,-0.613922119140625,1.0419921875,0.051971435546875,3921.7539975,-1.582407970652474,-1.227223483593428,-0.9380813373492386,-0.1293689161539078,-0.6704803109169006,-0.8393372893333435,0.001692652702331543,0.1795825362205505,0.2436423599720001,XArbitraryZVertical,-0.6251011042339047,-0.09824382656402082,-0.3356809861658677,0.6977928639773547,-0.5567768216133118,0.8064250349998474,-0.1991935223340988,0,0,0,-1,-1,3911.902580125,unknown,2,2024-06-17T17:31:40.279+02:00,2024-06-17T17:02:09.908+02:00,596,1.966004,0.7860793,1.562387,479.8037,0,0,2024-06-17T17:31:47.992+02:00
2024-06-17T17:31:50.187+02:00,1718638309.999206,53.2282706637795,10.40336585635751,32.74057,0,0.3079722,-1,-1,3.360706450988321,4.746597642846329,-9999,3921.8092295,-0.503753662109375,0.9416351318359375,0.1069183349609375,3921.7841245,-1.615647820773392,-1.267498568300214,-0.9195408843852135,-0.5230621695518494,-0.3171548843383789,-0.6979513168334961,-0.03540515899658203,0.2466686367988586,0.233020156621933,XArbitraryZVertical,-0.6306739053918666,-0.1082869239739303,-0.3403527871806312,0.6889732554739924,-0.5785168409347534,0.795323371887207,-0.1810487359762192,0,0,0,-1,-1,3911.902580125,unknown,2,2024-06-17T17:31:40.279+02:00,2024-06-17T17:02:09.908+02:00,596,1.966004,0.7860793,1.562387,479.8037,0,0,2024-06-17T17:31:47.992+02:00
2024-06-17T17:31:50.222+02:00,1718638309.999206,53.2282706637795,10.40336585635751,32.74057,0,0.3079722,-1,-1,3.360706450988321,4.746597642846329,-9999,3921.8443775,-0.6303558349609375,0.8696441650390625,0.004364013671875,3921.8142505,-1.642750667303642,-1.302540187154084,-0.9061604787389432,-0.4231900870800018,-0.5352789759635925,-0.403489351272583,0.1023581624031067,0.1804795265197754,0.2485740631818771,XArbitraryZVertical,-0.6361672795638255,-0.1164185756346993,-0.3427269858847588,0.6813781839597262,-0.594713568687439,0.7871414422988892,-0.1634758114814758,0,0,0,-1,-1,3911.902580125,unknown,2,2024-06-17T17:31:40.279+02:00,2024-06-17T17:02:09.908+02:00,596,1.966004,0.7860793,1.562387,479.8037,0,0,2024-06-17T17:31:47.992+02:00
2024-06-17T17:31:50.257+02:00,1718638309.999206,53.2282706637795,10.40336585635751,32.74057,0,0.3079722,-1,-1,3.360706450988321,4.746597642846329,-9999,3921.8795255,-0.541351318359375,0.848175048828125,-0.0629425048828125,3921.8745045,-1.694723715255978,-1.361808246418482,-0.8934179044629224,0.04851232469081879,-0.1664864122867584,-0.22390416264534,0.03270125389099121,0.1270619630813599,0.08553768694400787,XArbitraryZVertical,-0.6477293419847677,-0.1242196575769235,-0.3452292725353392,0.6677071290324458,-0.6131149530410767,0.7792184948921204,-0.1300323456525803,0,0,0,-1,-1,3911.902580125,unknown,2,2024-06-17T17:31:40.279+02:00,2024-06-17T17:02:09.908+02:00,596,1.966004,0.7860793,1.562387,479.8037,0,0,2024-06-17T17:31:47.992+02:00
2024-06-17T17:31:50.293+02:00,1718638309.999206,53.2282706637795,10.40336585635751,32.74057,0,0.3079722,-1,-1,3.360706450988321,4.746597642846329,-9999,3921.9146725,-0.582183837890625,0.8446197509765625,0.0117950439453125,3921.9046305,-1.693099389381911,-1.364977456401559,-0.8884676705901852,-0.03423088788986206,-0.06168036907911301,-0.05363088101148605,0.05644041299819946,0.002503752708435059,0.07019002735614777,XArbitraryZVertical,-0.6475290309806193,-0.1275479242283569,-0.3452134985340463,0.6672819734804499,-0.6172924041748047,0.7761063575744629,-0.1288753598928452,0,0,0,-1,-1,3911.902580125,unknown,2,2024-06-17T17:31:40.279+02:00,2024-06-17T17:02:09.908+02:00,596,1.966004,0.7860793,1.562387,479.8037,0,0,2024-06-17T17:31:47.992+02:00
2024-06-17T17:31:50.328+02:00,1718638309.999206,53.2282706637795,10.40336585635751,32.74057,0,0.3079722,-1,-1,3.360706450988321,4.746597642846329,-9999,3921.9498205,-0.537994384765625,0.8261871337890625,-0.04827880859375,3921.9347575,-1.701408871277984,-1.371429530824541,-0.8878526201360313,-0.01609229668974876,0.03888978064060211,-0.01893695071339607,0.03447258472442627,0.06705504655838013,0.1106411814689636,XArbitraryZVertical,-0.6490937259823211,-0.1272207154035299,-0.3460833636781772,0.6653710256924488,-0.6185790300369263,0.7757183909416199,-0.1249844506382942,0,0,0,-1,-1,3911.902580125,unknown,2,2024-06-17T17:31:40.279+02:00,2024-06-17T17:02:09.908+02:00,596,1.966004,0.7860793,1.562387,479.8037,0,0,2024-06-17T17:31:47.992+02:00
2024-06-17T17:31:50.363+02:00,1718638309.999206,53.2282706637795,10.40336585635751,32.74057,0,0.3079722,-1,-1,3.360706450988321,4.746597642846329,-9999,3921.9849685,-0.5085601806640625,0.672821044921875,-0.0315399169921875,3921.9648845,-1.690385614836852,-1.36206849434484,-0.8859196494001462,0.4742684364318848,0.03931863233447075,0.01336466148495674,0.0866667628288269,0.04192435741424561,0.07636179029941559,XArbitraryZVertical,-0.646518186579769,-0.1283523067892766,-0.3460475040809825,0.6676757690832117,-0.6188474893569946,0.7744970917701721,-0.131079837679863,0,0,0,-1,-1,3911.902580125,unknown,2,2024-06-17T17:31:40.279+02:00,2024-06-17T17:02:09.908+02:00,596,1.966004,0.7860793,1.562387,479.8037,0,0,2024-06-17T17:31:47.992+02:00
2024-06-17T17:31:50.398+02:00,1718638309.999206,53.2282706637795,10.40336585635751,32.74057,0,0.3079722,-1,-1,3.360706450988321,4.746597642846329,-9999,3922.0201165,-0.569671630859375,0.85235595703125,-0.0247955322265625,3921.9950105,-1.670823423398651,-1.34599106894893,-0.8829638315647674,0.09475398808717728,0.09738315641880035,0.03986817598342896,0.1103289723396301,-0.09980297088623047,0.1099816858768463,XArbitraryZVertical,-0.642073541110242,-0.130310235398841,-0.345601550524355,0.6718036822728627,-0.6188890337944031,0.7726238965988159,-0.141521617770195,0,0,0,-1,-1,3911.902580125,unknown,2,2024-06-17T17:31:40.279+02:00,2024-06-17T17:02:09.908+02:00,596,1.966004,0.7860793,1.562387,479.8037,0,0,2024-06-17T17:31:47.992+02:00
2024-06-17T17:31:50.433+02:00,1718638309.999206,53.2282706637795,10.40336585635751,32.74057,0,0.3079722,-1,-1,3.360706450988321,4.746597642846329,-9999,3922.0552645,-0.53607177734375,0.7801513671875,-0.0632171630859375,3922.0251375,-1.672957770569045,-1.342272048777383,-0.8825947961975565,0.1553481072187424,0.2537035644054413,-0.06664823740720749,0.05172652006149292,0.03476977348327637,0.1372950822114944,XArbitraryZVertical,-0.6415159672351122,-0.1285060669077104,-0.3476272761618404,0.6716387679829617,-0.6186361908912659,0.7723895311355591,-0.1438869088888168,0,0,0,-1,-1,3911.902580125,unknown,2,2024-06-17T17:31:40.279+02:00,2024-06-17T17:02:09.908+02:00,596,1.966004,0.7860793,1.562387,479.8037,0,0,2024-06-17T17:31:47.992+02:00
2024-06-17T17:31:50.468+02:00,1718638309.999206,53.2282706637795,10.40336585635751,32.74057,0,0.3079722,-1,-1,3.360706450988321,4.746597642846329,-9999,3922.0904115,-0.6489410400390625,0.7387847900390625,-0.09613037109375,3922.0853905,-1.646451760095537,-1.314371775780367,-0.8717770651333847,-0.4237958192825317,0.2265806645154953,-0.1097362339496613,0.009726345539093018,-0.1243298649787903,0.08527183532714844,XArbitraryZVertical,-0.6333628686840311,-0.1313477523427733,-0.3509546362818545,0.6770746092349932,-0.6224277019500732,0.7654736042022705,-0.1631984859704971,0,0,0,-1,-1,3911.902580125,unknown,2,2024-06-17T17:31:40.279+02:00,2024-06-17T17:02:09.908+02:00,596,1.966004,0.7860793,1.562387,479.8037,0,0,2024-06-17T17:31:47.992+02:00
2024-06-17T17:31:50.504+02:00,1718638309.999206,53.2282706637795,10.40336585635751,32.74057,0,0.3079722,-1,-1,3.360706450988321,4.746597642846329,-9999,3922.1255595,-0.6271514892578125,0.9494476318359375,-0.0249481201171875,3922.1155175,-1.683152746524521,-1.333469022564584,-0.8761103823284532,-0.6643826961517334,0.2076979279518127,-0.08978476375341415,-0.02957844734191895,0.1543524861335754,0.05417276918888092,XArbitraryZVertical,-0.6397115987509341,-0.1245725507459157,-0.3558870553468685,0.6697723620299799,-0.6222006678581238,0.7682547569274902,-0.1505015045404434,0,0,0,-1,-1,3911.902580125,unknown,2,2024-06-17T17:31:40.279+02:00,2024-06-17T17:02:09.908+02:00,596,1.966004,0.7860793,1.562387,479.8037,0,0,2024-06-17T17:31:47.992+02:00
2024-06-17T17:31:50.539+02:00,1718638309.999206,53.2282706637795,10.40336585635751,32.74057,0,0.3079722,-1,-1,3.360706450988321,4.746597642846329,-9999,3922.1607075,-0.618804931640625,0.78009033203125,-0.02490234375,3922.1456445,-1.700906744444835,-1.345503511375736,-0.8772000498661522,-0.1311688870191574,-0.01771062053740025,0.01254476048052311,0.00368952751159668,0.137175977230072,0.1524593979120255,XArbitraryZVertical,-0.6431039466859995,-0.1225128314992776,-0.3576175187164553,0.6659711409400647,-0.6231504678726196,0.7689518928527832,-0.1428158432245255,0,0,0,-1,-1,3911.902580125,unknown,2,2024-06-17T17:31:40.279+02:00,2024-06-17T17:02:09.908+02:00,596,1.966004,0.7860793,1.562387,479.8037,0,0,2024-06-17T17:31:47.992+02:00
2024-06-17T17:31:50.574+02:00,1718638309.999206,53.2282706637795,10.40336585635751,32.74057,0,0.3079722,-1,-1,3.360706450988321,4.746597642846329,-9999,3922.1958555,-0.586639404296875,0.765228271484375,-0.0526275634765625,3922.1757705,-1.691758807880736,-1.340492781278985,-0.8734939023644911,0.5252606272697449,-0.1572235077619553,-0.08957831561565399,0.01463240385055542,-0.03140866756439209,0.1078439801931381,XArbitraryZVertical,-0.6411395218705922,-0.1250882750291317,-0.3573284769456859,0.6675399071719713,-0.6251976490020752,0.7665772438049316,-0.146586075425148,0,0,0,-1,-1,3911.902580125,unknown,2,2024-06-17T17:31:40.279+02:00,2024-06-17T17:02:09.908+02:00,596,1.966004,0.7860793,1.562387,479.8037,0,0,2024-06-17T17:31:47.992+02:00
2024-06-17T17:31:50.610+02:00,1718638309.999206,53.2282706637795,10.40336585635751,32.74057,0,0.3079722,-1,-1,3.360706450988321,4.746597642846329,-9999,3922.2310035,-0.640228271484375,0.877410888671875,-0.0819091796875,3922.2058975,-1.664180648134956,-1.326938547858705,-0.8667829887731154,0.7047882676124573,-0.3128711879253387,-0.04160302877426147,0.0414920449256897,0.002977669239044189,0.1036574393510818,XArbitraryZVertical,-0.6360098174082092,-0.1317156670720128,-0.3545004949463752,0.6726603003619132,-0.6281313896179199,0.762250542640686,-0.1562849879264832,0,0,0,-1,-1,3911.902580125,unknown,2,2024-06-17T17:31:40.279+02:00,2024-06-17T17:02:09.908+02:00,596,1.966004,0.7860793,1.562387,479.8037,0,0,2024-06-17T17:31:47.992+02:00
2024-06-17T17:31:50.644+02:00,1718638309.999206,53.2282706637795,10.40336585635751,32.74057,0,0.3079722,-1,-1,3.360706450988321,4.746597642846329,-9999,3922.2661505,-0.699798583984375,0.8541259765625,-0.0688323974609375,3922.2360245,-1.633113812039703,-1.313943031152958,-0.8611027552300003,0.7242945432662964,-0.3994540274143219,0.02126381918787956,-0.003853917121887207,0.1137070655822754,0.0835004597902298,XArbitraryZVertical,-0.6307692889299858,-0.1391554729463289,-0.3498857570806073,0.6784878653847924,-0.6302250027656555,0.7585615515708923,-0.1655317097902298,0,0,0,-1,-1,3922.1858135,unknown,2,2024-06-17T17:31:50.563+02:00,2024-06-17T17:02:09.908+02:00,596,1.966004,0.7860793,1.562387,479.8037,0,0,2024-06-17T17:31:50.563+02:00
2024-06-17T17:31:50.679+02:00,1718638309.999206,53.2282706637795,10.40336585635751,32.74057,0,0.3079722,-1,-1,3.360706450988321,4.746597642846329,-9999,3922.3012985,-0.7325897216796875,0.84857177734375,-0.0685577392578125,3922.2962775,-1.55596341695096,-1.285869228950915,-0.8488257627674789,0.9773637652397156,-0.6344988942146301,0.01635130681097507,-0.07841110229492188,0.1140121817588806,0.0961611419916153,XArbitraryZVertical,-0.6182178590150503,-0.1578805955401774,-0.3360142641998438,0.6928020295620841,-0.6342200040817261,0.7505049109458923,-0.1857607960700989,0,0,0,-1,-1,3922.1858135,unknown,2,2024-06-17T17:31:50.563+02:00,2024-06-17T17:02:09.908+02:00,596,1.966004,0.7860793,1.562387,479.8037,0,0,2024-06-17T17:31:50.563+02:00
2024-06-17T17:31:50.714+02:00,1718638309.999206,53.2282706637795,10.40336585635751,32.74057,0,0.3079722,-1,-1,3.360706450988321,4.746597642846329,-9999,3922.3364465,-0.8078155517578125,0.73980712890625,-0.074310302734375,3922.3264045,-1.518783548047804,-1.277993521779523,-0.8402253559200702,0.6691071391105652,-0.5980492830276489,-0.04726912453770638,-0.1587285995483398,0.07139909267425537,0.1491031050682068,XArbitraryZVertical,-0.6123392779675048,-0.1695217750833711,-0.3281683977081123,0.6990053775525373,-0.6388940811157227,0.7447935342788696,-0.1926059573888779,0,0,0,-1,-1,3922.1858135,unknown,2,2024-06-17T17:31:50.563+02:00,2024-06-17T17:02:09.908+02:00,596,1.966004,0.7860793,1.562387,479.8037,0,0,2024-06-17T17:31:50.563+02:00
2024-06-17T17:31:50.750+02:00,1718638309.999206,53.2282706637795,10.40336585635751,32.74057,0,0.3079722,-1,-1,3.360706450988321,4.746597642846329,-9999,3922.3715945,-0.6660614013671875,0.7618255615234375,-0.131195068359375,3922.3565305,-1.495253895695805,-1.276785745426471,-0.8330829138126193,0.69733065366745,-0.4732196927070618,-0.05449614673852921,-0.1481646299362183,-0.00657951831817627,0.1168500781059265,XArbitraryZVertical,-0.6087753454374687,-0.1787051565505707,-0.3225087694217734,0.7024565067430452,-0.6437360048294067,0.7400084733963013,-0.1949140876531601,0,0,0,-1,-1,3922.1858135,unknown,2,2024-06-17T17:31:50.563+02:00,2024-06-17T17:02:09.908+02:00,596,1.966004,0.7860793,1.562387,479.8037,0,0,2024-06-17T17:31:50.563+02:00
2024-06-17T17:31:50.785+02:00,1718638309.999206,53.2282706637795,10.40336585635751,32.74057,0,0.3079722,-1,-1,3.360706450988321,4.746597642846329,-9999,3922.4067425,-0.638214111328125,0.4771575927734375,0.0021514892578125,3922.3866575,-1.45307174905086,-1.26528339941329,-0.8239314615806523,1.124376893043518,-0.7396475672721863,0.09363411366939545,0.01348358392715454,-0.04406410455703735,0.1005894094705582,XArbitraryZVertical,-0.6012903726449881,-0.1904808013122866,-0.3139340785428166,0.7096564050903351,-0.6478829383850098,0.7338222861289978,-0.2043339014053345,0,0,0,-1,-1,3922.1858135,unknown,2,2024-06-17T17:31:50.563+02:00,2024-06-17T17:02:09.908+02:00,596,1.966004,0.7860793,1.562387,479.8037,0,0,2024-06-17T17:31:50.563+02:00
2024-06-17T17:31:50.820+02:00,1718638309.999206,53.2282706637795,10.40336585635751,32.74057,0,0.3079722,-1,-1,3.360706450988321,4.746597642846329,-9999,3922.4418895,-0.63031005859375,0.639007568359375,-0.0543060302734375,3922.4167845,-1.415542470172909,-1.254521887173799,-0.8206867084088865,0.7217914462089539,-0.3086206912994385,0.2015058100223541,0.009692192077636719,-0.2544565200805664,0.2141851484775543,XArbitraryZVertical,-0.5953170147302028,-0.1989492582654412,-0.304778986663544,0.7163286365894774,-0.6479063630104065,0.7316141724586487,-0.2120336890220642,0,0,0,-1,-1,3922.1858135,unknown,2,2024-06-17T17:31:50.563+02:00,2024-06-17T17:02:09.908+02:00,596,1.966004,0.7860793,1.562387,479.8037,0,0,2024-06-17T17:31:50.563+02:00
2024-06-17T17:31:50.855+02:00,1718638309.999206,53.2282706637795,10.40336585635751,32.74057,0,0.3079722,-1,-1,3.360706450988321,4.746597642846329,-9999,3922.4770375,-0.8503265380859375,0.7462921142578125,-0.02972412109375,3922.4469105,-1.366184840386767,-1.231661487914085,-0.8161323679453972,1.466684341430664,-0.4918824732303619,0.3330091834068298,0.03805458545684814,-0.08694607019424438,0.1584822088479996,XArbitraryZVertical,-0.5859149998606069,-0.206776178816265,-0.2951401219954048,0.72583709303991,-0.6460257172584534,0.7285017967224121,-0.2278944551944733,0,0,0,-1,-1,3922.1858135,unknown,2,2024-06-17T17:31:50.563+02:00,2024-06-17T17:02:09.908+02:00,596,1.966004,0.7860793,1.562387,479.8037,0,0,2024-06-17T17:31:50.563+02:00
2024-06-17T17:31:50.890+02:00,1718638309.999206,53.2282706637795,10.40336585635751,32.74057,0,0.3079722,-1,-1,3.360706450988321,4.746597642846329,-9999,3922.5121855,-0.811798095703125,0.5851287841796875,-0.0486907958984375,3922.5071645,-1.222172116100031,-1.122670255625846,-0.8055425657456116,1.666746616363525,0.4174452126026154,0.5801007151603699,-0.2065045237541199,0.04629522562026978,0.2632594108581543,XArbitraryZVertical,-0.552749238430455,-0.2107090797258679,-0.2759527727849608,0.7575750871020794,-0.6243212819099426,0.7212066054344177,-0.3001399338245392,0,0,0,-1,-1,3922.1858135,unknown,2,2024-06-17T17:31:50.563+02:00,2024-06-17T17:02:09.908+02:00,596,1.966004,0.7860793,1.562387,479.8037,0,0,2024-06-17T17:31:50.563+02:00
2024-06-17T17:31:50.925+02:00,1718638309.999206,53.2282706637795,10.40336585635751,32.74057,0,0.3079722,-1,-1,3.360706450988321,4.746597642846329,-9999,3922.5473335,-0.6635894775390625,0.4111175537109375,-0.098907470703125,3922.5372905,-1.172949233589061,-1.070614107456744,-0.8086337349579039,0.1810631901025772,0.6635818481445312,0.5372710227966309,-0.1462979912757874,-0.2915055155754089,0.2705092132091522,XArbitraryZVertical,-0.5413637561225859,-0.203350621426921,-0.2704921584718427,0.769680227628286,-0.6058992147445679,0.7233444452285767,-0.3311476111412048,0,0,0,-1,-1,3922.1858135,unknown,2,2024-06-17T17:31:50.563+02:00,2024-06-17T17:02:09.908+02:00,596,1.966004,0.7860793,1.562387,479.8037,0,0,2024-06-17T17:31:50.563+02:00
2024-06-17T17:31:50.961+02:00,1718638309.999206,53.2282706637795,10.40336585635751,32.74057,0,0.3079722,-1,-1,3.360706450988321,4.746597642846329,-9999,3922.5824805,-0.455810546875,0.7303314208984375,-0.1804351806640625,3922.5674175,-1.173060541526056,-1.052311432863435,-0.8156712308962487,0.1190673857927322,0.3775109052658081,-0.2300000935792923,-0.01932299137115479,-0.1083585619926453,0.2053574323654175,XArbitraryZVertical,-0.5408184556306271,-0.1941401093537457,-0.2734605805659625,0.7713911535617126,-0.5953009724617004,0.7281858325004578,-0.33965003490448,0,0,0,-1,-1,3922.1858135,unknown,2,2024-06-17T17:31:50.563+02:00,2024-06-17T17:02:09.908+02:00,596,1.966004,0.7860793,1.562387,479.8037,0,0,2024-06-17T17:31:50.563+02:00
2024-06-17T17:31:50.996+02:00,1718638309.999206,53.2282706637795,10.40336585635751,32.74057,0,0.3079722,-1,-1,3.360706450988321,4.746597642846329,-9999,3922.6176285,-0.5088348388671875,0.95892333984375,-0.39593505859375,3922.5975445,-1.170718122327843,-1.054539255551322,-0.7990078125164979,-0.2094634920358658,-0.3789069354534149,-0.5360947847366333,0.1776163578033447,0.01555901765823364,0.1726192831993103,XArbitraryZVertical,-0.5362847503832658,-0.2006637658936067,-0.2767306415736375,0.7717207127387021,-0.6065255999565125,0.7166644930839539,-0.3442654311656952,0,0,0,-1,-1,3922.1858135,unknown,2,2024-06-17T17:31:50.563+02:00,2024-06-17T17:02:09.908+02:00,596,1.966004,0.7860793,1.562387,479.8037,0,0,2024-06-17T17:31:50.563+02:00
2024-06-17T17:31:51.031+02:00,1718638309.999206,53.2282706637795,10.40336585635751,32.74057,0,0.3079722,-1,-1,3.360706450988321,4.746597642846329,-9999,3922.6527765,-0.3462677001953125,0.9943084716796875,-0.6180267333984375,3922.6276705,-1.212870652390517,-1.097644836456526,-0.786918367769597,-0.54652339220047,-0.5762256979942322,-1.127191662788391,0.1196292638778687,0.2507423758506775,-0.07420113682746887,XArbitraryZVertical,-0.5433674714047482,-0.2094870464076463,-0.284743968558705,0.7614379770432591,-0.6284639835357666,0.7081809043884277,-0.3217339515686035,0,0,0,-1,-1,3922.1858135,unknown,2,2024-06-17T17:31:50.563+02:00,2024-06-17T17:02:09.908+02:00,596,1.966004,0.7860793,1.562387,479.8037,0,0,2024-06-17T17:31:50.563+02:00
2024-06-17T17:31:51.066+02:00,1718638309.999206,53.2282706637795,10.40336585635751,32.74057,0,0.3079722,-1,-1,3.360706450988321,4.746597642846329,-9999,3922.687924875,-0.2757568359375,0.7574310302734375,-0.5484771728515625,3922.6577975,-1.250402714680301,-1.148214478405106,-0.7578106502671637,-0.4799471199512482,-0.9819268584251404,-1.239497542381287,0.2721135020256042,0.3732750415802002,-0.313671886920929,XArbitraryZVertical,-0.5471499806344793,-0.2273418851443851,-0.2936829300098964,0.7501286363017248,-0.662448525428772,0.6873328685760498,-0.2978851199150085,0,0,0,-1,-1,3922.1858135,unknown,2,2024-06-17T17:31:50.563+02:00,2024-06-17T17:02:09.908+02:00,596,1.966004,0.7860793,1.562387,479.8037,0,0,2024-06-17T17:31:50.563+02:00
2024-06-17T17:31:51.101+02:00,1718638309.999206,53.2282706637795,10.40336585635751,32.74057,0,0.3079722,-1,-1,3.360706450988321,4.746597642846329,-9999,3922.723072875,-0.21630859375,0.5045318603515625,-0.5203704833984375,3922.718050875,-1.32963232255172,-1.253809593331016,-0.6999978487318564,-0.2484914511442184,-0.7414453625679016,-1.306687355041504,0.5094684362411499,0.03449487686157227,-0.2999246716499329,XArbitraryZVertical,-0.5585195164537048,-0.2623989917274838,-0.3109999485813944,0.7228289826400448,-0.7267382740974426,0.6442160606384277,-0.2384054362773895,0,0,0,-1,-1,3922.1858135,unknown,2,2024-06-17T17:31:50.563+02:00,2024-06-17T17:02:09.908+02:00,596,1.966004,0.7860793,1.562387,479.8037,0,0,2024-06-17T17:31:50.563+02:00
2024-06-17T17:31:51.136+02:00,1718638310.99919,53.2282706637795,10.40336585635751,32.74057,0,0.3079722,-1,-1,3.3607073488712,4.746597007123308,-9999,3922.758219875,-0.28094482421875,0.7340850830078125,-0.37188720703125,3922.748177875,-1.346583763868257,-1.28238218245295,-0.6645068348145463,0.3264434933662415,-0.4252864718437195,-1.224395155906677,0.5105651021003723,-0.05018854141235352,-0.1548732221126556,XArbitraryZVertical,-0.5569339781710051,-0.2790502730984771,-0.3198588981204423,0.7138946757224947,-0.7547056078910828,0.6166709661483765,-0.2239109724760056,0,0,0,-1,-1,3922.1858135,unknown,2,2024-06-17T17:31:50.563+02:00,2024-06-17T17:02:09.908+02:00,596,1.966004,0.7860793,1.562387,479.8037,0,0,2024-06-17T17:31:50.563+02:00
2024-06-17T17:31:51.171+02:00,1718638310.99919,53.2282706637795,10.40336585635751,32.74057,0,0.3079722,-1,-1,3.3607073488712,4.746597007123308,-9999,3922.793367875,-0.3642120361328125,0.6404876708984375,-0.416656494140625,3922.778304875,-1.321772431963203,-1.28050866443033,-0.6224752242651964,1.5520840883255,-0.4933842718601227,-1.031469464302063,0.5095715522766113,0.1450709104537964,-0.1197526305913925,XArbitraryZVertical,-0.542952713284965,-0.2982133347184759,-0.3241703707694095,0.7149718067827068,-0.7784466147422791,0.5830479264259338,-0.2325423210859299,0,0,0,-1,-1,3922.1858135,unknown,2,2024-06-17T17:31:50.563+02:00,2024-06-17T17:02:09.908+02:00,596,1.966004,0.7860793,1.562387,479.8037,0,0,2024-06-17T17:31:50.563+02:00
2024-06-17T17:31:51.207+02:00,1718638310.99919,53.2282706637795,10.40336585635751,32.74057,0,0.3079722,-1,-1,3.3607073488712,4.746597007123308,-9999,3922.828515875,-0.846893310546875,0.9719085693359375,-0.4525146484375,3922.808430875,-1.282592772134787,-1.274664626317765,-0.5844396291443197,0.7834500670433044,-0.5483868718147278,-0.7642647624015808,0.3754010200500488,0.1032055616378784,-0.1900397390127182,XArbitraryZVertical,-0.5264161811894068,-0.3181083467220738,-0.3230463215322995,0.7192593971026214,-0.7977184653282166,0.5517321228981018,-0.2433861643075943,0,0,0,-1,-1,3922.1858135,unknown,2,2024-06-17T17:31:50.563+02:00,2024-06-17T17:02:09.908+02:00,596,1.966004,0.7860793,1.562387,479.8037,0,0,2024-06-17T17:31:50.563+02:00
2024-06-17T17:31:51.242+02:00,1718638310.99919,53.2282706637795,10.40336585635751,32.74057,0,0.3079722,-1,-1,3.3607073488712,4.746597007123308,-9999,3922.863663875,-0.993011474609375,1.3046875,-0.5797119140625,3922.838557875,-1.279865145317701,-1.279538355863548,-0.5644283493998675,0.180036872625351,0.2628550827503204,-0.4148581922054291,-0.0375828742980957,0.4369755983352661,-0.2098969221115112,XArbitraryZVertical,-0.5216007236497704,-0.326533020725935,-0.3267354543898925,0.7173233422096007,-0.8093104362487793,0.5349329113960266,-0.24261774122715,0,0,0,-1,-1,3922.1858135,unknown,2,2024-06-17T17:31:50.563+02:00,2024-06-17T17:02:09.908+02:00,596,1.966004,0.7860793,1.562387,479.8037,0,0,2024-06-17T17:31:50.563+02:00
2024-06-17T17:31:51.277+02:00,1718638310.99919,53.2282706637795,10.40336585635751,32.74057,0,0.3079722,-1,-1,3.3607073488712,4.746597007123308,-9999,3922.898810875,-1.014236450195312,1.266067504882812,-0.691131591796875,3922.868684875,-1.25858275990746,-1.257984556305359,-0.555315811642024,0.9824591279029846,0.407820075750351,0.3350884914398193,-0.1894266605377197,0.8253883719444275,-0.3176085948944092,XArbitraryZVertical,-0.5122011177968276,-0.3269610135574793,-0.3273306447735113,0.7236028733499772,-0.8084980845451355,0.5272116661071777,-0.2614930272102356,0,0,0,-1,-1,3922.1858135,unknown,2,2024-06-17T17:31:50.563+02:00,2024-06-17T17:02:09.908+02:00,596,1.966004,0.7860793,1.562387,479.8037,0,0,2024-06-17T17:31:50.563+02:00
2024-06-17T17:31:51.312+02:00,1718638310.99919,53.2282706637795,10.40336585635751,32.74057,0,0.3079722,-1,-1,3.3607073488712,4.746597007123308,-9999,3922.933958875,-0.9989166259765625,1.50628662109375,-0.7360076904296875,3922.928937875,-1.189795848155326,-1.168277742455474,-0.6091704173979012,0.9633724093437195,1.139669179916382,1.89836049079895,-0.2738200426101685,0.9110584855079651,-0.3778547942638397,XArbitraryZVertical,-0.5020305203500075,-0.2955150933585213,-0.3090052754315875,0.7517657914760729,-0.7545764446258545,0.5721873044967651,-0.3212723731994629,0,0,0,-1,-1,3922.1858135,unknown,2,2024-06-17T17:31:50.563+02:00,2024-06-17T17:02:09.908+02:00,596,1.966004,0.7860793,1.562387,479.8037,0,0,2024-06-17T17:31:50.563+02:00
2024-06-17T17:31:51.347+02:00,1718638310.99919,53.2282706637795,10.40336585635751,32.74057,0,0.3079722,-1,-1,3.3607073488712,4.746597007123308,-9999,3922.969106875,-0.997772216796875,1.4744873046875,-0.9183349609375,3922.959064875,-1.108811978382393,-1.081625830857684,-0.6572941338240471,1.317227602005005,1.549583077430725,2.814707279205322,-0.2928472757339478,1.058899164199829,-0.3396334946155548,XArbitraryZVertical,-0.4917776744378155,-0.2686249577025628,-0.2858773354984234,0.7773477842189452,-0.6988062262535095,0.6109769940376282,-0.3719907104969025,0,0,0,-1,-1,3922.1858135,unknown,2,2024-06-17T17:31:50.563+02:00,2024-06-17T17:02:09.908+02:00,596,1.966004,0.7860793,1.562387,479.8037,0,0,2024-06-17T17:31:50.563+02:00
2024-06-17T17:31:51.382+02:00,1718638310.99919,53.2282706637795,10.40336585635751,32.74057,0,0.3079722,-1,-1,3.3607073488712,4.746597007123308,-9999,3923.004254875,-0.972869873046875,2.056854248046875,-0.8713836669921875,3922.989190875,-0.9981609713358678,-0.9529286753550067,-0.7233779485555889,1.377346515655518,2.494227647781372,3.921756744384766,-0.425509512424469,0.9321652054786682,-0.5201797485351562,XArbitraryZVertical,-0.4813992920356019,-0.2261442291538149,-0.2552974633338094,0.8074259509914824,-0.6109894514083862,0.6619204878807068,-0.4342270195484161,0,0,0,-1,-1,3922.1858135,unknown,2,2024-06-17T17:31:50.563+02:00,2024-06-17T17:02:09.908+02:00,596,1.966004,0.7860793,1.562387,479.8037,0,0,2024-06-17T17:31:50.563+02:00
