loggingTime(txt),accelerometerTimestamp_sinceReboot(s),accelerometerAccelerationX(G),accelerometerAccelerationY(G),accelerometerAccelerationZ(G)
2024-06-20T17:46:04.933+02:00,4078.862160916667,0.033477783203125,-0.5647430419921875,-0.8466644287109375
2024-06-20T17:46:04.935+02:00,4078.872217916667,0.0325164794921875,-0.5445709228515625,-0.8235626220703125
2024-06-20T17:46:04.939+02:00,4078.882275916667,-0.01385498046875,-0.5089874267578125,-0.85015869140625
2024-06-20T17:46:04.950+02:00,4078.892332916667,-0.0590057373046875,-0.4544677734375,-0.8818511962890625
2024-06-20T17:46:04.959+02:00,4078.902390916667,-0.058258056640625,-0.4211273193359375,-0.891815185546875
2024-06-20T17:46:04.970+02:00,4078.912447916667,-0.033660888671875,-0.4263916015625,-0.89288330078125
2024-06-20T17:46:04.979+02:00,4078.922505916667,-0.01336669921875,-0.4512786865234375,-0.8845977783203125
2024-06-20T17:46:04.990+02:00,4078.932562916667,-0.0076446533203125,-0.475189208984375,-0.879608154296875
2024-06-20T17:46:05.000+02:00,4078.942620916667,-0.0144195556640625,-0.490509033203125,-0.8690948486328125
2024-06-20T17:46:05.010+02:00,4078.952677916667,-0.026275634765625,-0.500701904296875,-0.8625946044921875
2024-06-20T17:46:05.020+02:00,4078.962735916667,-0.037872314453125,-0.4992828369140625,-0.8568878173828125
2024-06-20T17:46:05.030+02:00,4078.972792916667,-0.0364837646484375,-0.4781341552734375,-0.854034423828125
2024-06-20T17:46:05.040+02:00,4078.982850916667,-0.02593994140625,-0.4619293212890625,-0.8575286865234375
2024-06-20T17:46:05.054+02:00,4078.992907916667,-0.0169525146484375,-0.453765869140625,-0.868438720703125
2024-06-20T17:46:05.062+02:00,4079.002965916667,-0.0151214599609375,-0.446014404296875,-0.8751068115234375
2024-06-20T17:46:05.070+02:00,4079.013022916667,-0.0136566162109375,-0.450469970703125,-0.8778839111328125
2024-06-20T17:46:05.080+02:00,4079.023080916667,-0.01287841796875,-0.455810546875,-0.8845367431640625
2024-06-20T17:46:05.091+02:00,4079.033137916667,-0.0139007568359375,-0.4616241455078125,-0.8931732177734375
2024-06-20T17:46:05.100+02:00,4079.043195916667,-0.01312255859375,-0.461700439453125,-0.8874969482421875
2024-06-20T17:46:05.110+02:00,4079.053252916667,-0.0131378173828125,-0.4624481201171875,-0.88037109375
2024-06-20T17:46:05.121+02:00,4079.063310916667,-0.0118255615234375,-0.459197998046875,-0.8743896484375
2024-06-20T17:46:05.131+02:00,4079.073367916667,-0.0119781494140625,-0.4537506103515625,-0.8616180419921875
2024-06-20T17:46:05.141+02:00,4079.083425916667,-0.01214599609375,-0.4519195556640625,-0.8539276123046875
2024-06-20T17:46:05.151+02:00,4079.093482916667,-0.0157012939453125,-0.4617919921875,-0.8537139892578125
2024-06-20T17:46:05.161+02:00,4079.103540916667,-0.0171356201171875,-0.4596099853515625,-0.859344482421875
2024-06-20T17:46:05.171+02:00,4079.113598916667,-0.017120361328125,-0.443603515625,-0.8564453125
2024-06-20T17:46:05.181+02:00,4079.123655916667,-0.010894775390625,-0.438018798828125,-0.87908935546875
2024-06-20T17:46:05.191+02:00,4079.133713916667,-0.0045013427734375,-0.4412689208984375,-0.896636962890625
2024-06-20T17:46:05.201+02:00,4079.143770916667,-0.0037384033203125,-0.4501953125,-0.9027099609375
2024-06-20T17:46:05.211+02:00,4079.153828916667,-0.00439453125,-0.4633636474609375,-0.8905181884765625
2024-06-20T17:46:05.221+02:00,4079.163885916667,-0.006866455078125,-0.474273681640625,-0.8899993896484375
2024-06-20T17:46:05.231+02:00,4079.173943916667,-0.018157958984375,-0.4756622314453125,-0.885528564453125
2024-06-20T17:46:05.241+02:00,4079.184000916667,-0.023101806640625,-0.461761474609375,-0.8807525634765625
2024-06-20T17:46:05.251+02:00,4079.194058916667,-0.028289794921875,-0.4515380859375,-0.8773193359375
2024-06-20T17:46:05.261+02:00,4079.204115916667,-0.0315093994140625,-0.449859619140625,-0.875885009765625
2024-06-20T17:46:05.272+02:00,4079.214173916667,-0.0356903076171875,-0.4528350830078125,-0.8763427734375
2024-06-20T17:46:05.281+02:00,4079.224230916667,-0.034393310546875,-0.46014404296875,-0.8782958984375
2024-06-20T17:46:05.292+02:00,4079.234288916667,-0.0303955078125,-0.4676361083984375,-0.8708648681640625
2024-06-20T17:46:05.302+02:00,4079.244345916667,-0.027740478515625,-0.4670867919921875,-0.8792572021484375
2024-06-20T17:46:05.312+02:00,4079.254403916667,-0.0258331298828125,-0.4690399169921875,-0.872772216796875
2024-06-20T17:46:05.322+02:00,4079.264460916667,-0.0302734375,-0.4699249267578125,-0.8729248046875
2024-06-20T17:46:05.332+02:00,4079.274518916667,-0.0352783203125,-0.470184326171875,-0.8712310791015625
2024-06-20T17:46:05.342+02:00,4079.284575916667,-0.0286865234375,-0.4673004150390625,-0.8514251708984375
2024-06-20T17:46:05.352+02:00,4079.294633916667,-0.0181884765625,-0.4637603759765625,-0.847869873046875
2024-06-20T17:46:05.362+02:00,4079.304690916667,-0.0097503662109375,-0.4644012451171875,-0.851318359375
2024-06-20T17:46:05.372+02:00,4079.314748916667,-0.0106048583984375,-0.45208740234375,-0.849761962890625
2024-06-20T17:46:05.382+02:00,4079.324806916667,-0.02984619140625,-0.4503021240234375,-0.8638458251953125
2024-06-20T17:46:05.392+02:00,4079.334863916667,-0.0497894287109375,-0.4510955810546875,-0.860260009765625
2024-06-20T17:46:05.402+02:00,4079.344921916667,-0.063629150390625,-0.454071044921875,-0.861236572265625
2024-06-20T17:46:05.412+02:00,4079.354978916667,-0.064422607421875,-0.4621429443359375,-0.8631744384765625
2024-06-20T17:46:05.422+02:00,4079.365036916667,-0.0691070556640625,-0.469970703125,-0.85906982421875
2024-06-20T17:46:05.432+02:00,4079.375093916667,-0.07891845703125,-0.4788818359375,-0.8527374267578125
2024-06-20T17:46:05.442+02:00,4079.385151916667,-0.0870361328125,-0.4773712158203125,-0.840362548828125
2024-06-20T17:46:05.452+02:00,4079.395208916667,-0.0979766845703125,-0.473785400390625,-0.8348541259765625
2024-06-20T17:46:05.463+02:00,4079.405266916667,-0.1125335693359375,-0.4757080078125,-0.8259735107421875
2024-06-20T17:46:05.473+02:00,4079.415323916667,-0.136810302734375,-0.48065185546875,-0.8069000244140625
2024-06-20T17:46:05.483+02:00,4079.425381916667,-0.1674652099609375,-0.4864501953125,-0.791229248046875
2024-06-20T17:46:05.493+02:00,4079.435438916667,-0.1909027099609375,-0.4852294921875,-0.7742462158203125
2024-06-20T17:46:05.503+02:00,4079.445496916667,-0.209686279296875,-0.4858551025390625,-0.7641448974609375
2024-06-20T17:46:05.513+02:00,4079.455553916667,-0.2267303466796875,-0.4795379638671875,-0.7485809326171875
2024-06-20T17:46:05.523+02:00,4079.465611916667,-0.237640380859375,-0.466064453125,-0.7362518310546875
2024-06-20T17:46:05.533+02:00,4079.475668916667,-0.242584228515625,-0.4573822021484375,-0.716552734375
2024-06-20T17:46:05.543+02:00,4079.485726916667,-0.23712158203125,-0.455169677734375,-0.7122955322265625
2024-06-20T17:46:05.559+02:00,4079.495784916667,-0.21990966796875,-0.4629669189453125,-0.716766357421875
2024-06-20T17:46:05.563+02:00,4079.505841916667,-0.200653076171875,-0.4710693359375,-0.7256011962890625
2024-06-20T17:46:05.573+02:00,4079.515899916667,-0.1832122802734375,-0.45147705078125,-0.7421417236328125
2024-06-20T17:46:05.583+02:00,4079.525956916667,-0.156951904296875,-0.4098968505859375,-0.75933837890625
2024-06-20T17:46:05.593+02:00,4079.536014916667,-0.117034912109375,-0.369415283203125,-0.792022705078125
2024-06-20T17:46:05.603+02:00,4079.546071916667,-0.0769500732421875,-0.322235107421875,-0.7920684814453125
2024-06-20T17:46:05.613+02:00,4079.556129916667,-0.0430450439453125,-0.28326416015625,-0.78436279296875
2024-06-20T17:46:05.624+02:00,4079.566186916667,-0.0218963623046875,-0.2464447021484375,-0.7790069580078125
2024-06-20T17:46:05.634+02:00,4079.576244916667,-0.0071258544921875,-0.195281982421875,-0.766448974609375
2024-06-20T17:46:05.644+02:00,4079.586301916667,-0.0026092529296875,-0.1221923828125,-0.760498046875
2024-06-20T17:46:05.654+02:00,4079.596359916667,-0.0018157958984375,-0.0554962158203125,-0.760833740234375
2024-06-20T17:46:05.664+02:00,4079.606416916667,0.0019989013671875,0.006195068359375,-0.74298095703125
2024-06-20T17:46:05.674+02:00,4079.616474916667,0.006103515625,0.0555267333984375,-0.7412261962890625
2024-06-20T17:46:05.684+02:00,4079.626531916667,0.0147705078125,0.09716796875,-0.7364349365234375
2024-06-20T17:46:05.694+02:00,4079.636589916667,0.028717041015625,0.131683349609375,-0.7313690185546875
2024-06-20T17:46:05.704+02:00,4079.646646916667,0.042388916015625,0.1627349853515625,-0.718231201171875
2024-06-20T17:46:05.714+02:00,4079.656704916667,0.056549072265625,0.18157958984375,-0.698974609375
2024-06-20T17:46:05.724+02:00,4079.666762916667,0.060791015625,0.2047271728515625,-0.661102294921875
2024-06-20T17:46:05.734+02:00,4079.676819916667,0.06646728515625,0.25018310546875,-0.641815185546875
2024-06-20T17:46:05.744+02:00,4079.686877916667,0.0815582275390625,0.3094635009765625,-0.6509552001953125
2024-06-20T17:46:05.754+02:00,4079.696934916667,0.0958404541015625,0.3716583251953125,-0.68798828125
2024-06-20T17:46:05.764+02:00,4079.706992916667,0.1067047119140625,0.3950958251953125,-0.7133941650390625
2024-06-20T17:46:05.774+02:00,4079.717049916667,0.111602783203125,0.3871917724609375,-0.7184600830078125
2024-06-20T17:46:05.784+02:00,4079.727107916667,0.1136474609375,0.38531494140625,-0.72125244140625
2024-06-20T17:46:05.794+02:00,4079.737164916667,0.12213134765625,0.407806396484375,-0.725067138671875
2024-06-20T17:46:05.804+02:00,4079.747222916667,0.1360931396484375,0.4522705078125,-0.735198974609375
2024-06-20T17:46:05.814+02:00,4079.757279916667,0.1495513916015625,0.50482177734375,-0.736907958984375
2024-06-20T17:46:05.825+02:00,4079.767337916667,0.1620941162109375,0.56158447265625,-0.743408203125
2024-06-20T17:46:05.835+02:00,4079.777394916667,0.1749267578125,0.6145172119140625,-0.7665252685546875
2024-06-20T17:46:05.845+02:00,4079.787452916667,0.19012451171875,0.657012939453125,-0.7814788818359375
2024-06-20T17:46:05.855+02:00,4079.797509916667,0.183746337890625,0.70904541015625,-0.78253173828125
2024-06-20T17:46:05.865+02:00,4079.807567916667,0.1589813232421875,0.759307861328125,-0.8067779541015625
2024-06-20T17:46:05.875+02:00,4079.817626,0.1357574462890625,0.81011962890625,-0.8289947509765625
2024-06-20T17:46:05.885+02:00,4079.827683,0.116973876953125,0.8716888427734375,-0.83282470703125
2024-06-20T17:46:05.895+02:00,4079.837741,0.0947113037109375,0.9078826904296875,-0.8405303955078125
2024-06-20T17:46:05.911+02:00,4079.847798,0.07781982421875,0.909515380859375,-0.8765411376953125
2024-06-20T17:46:05.915+02:00,4079.857856,0.0854644775390625,0.878692626953125,-0.8895721435546875
2024-06-20T17:46:05.925+02:00,4079.867913,0.0920562744140625,0.830718994140625,-0.874725341796875
2024-06-20T17:46:05.935+02:00,4079.877971,0.0898590087890625,0.7760772705078125,-0.83544921875
2024-06-20T17:46:05.945+02:00,4079.888028,0.0884857177734375,0.7390289306640625,-0.79681396484375
2024-06-20T17:46:05.955+02:00,4079.898086,0.084716796875,0.72393798828125,-0.7716827392578125
2024-06-20T17:46:05.965+02:00,4079.908143,0.0798492431640625,0.737213134765625,-0.7335052490234375
2024-06-20T17:46:05.975+02:00,4079.918201,0.068328857421875,0.7901763916015625,-0.726959228515625
2024-06-20T17:46:05.985+02:00,4079.928258,0.0623626708984375,0.852996826171875,-0.73834228515625
2024-06-20T17:46:05.996+02:00,4079.938316,0.0418701171875,0.9023590087890625,-0.787872314453125
2024-06-20T17:46:06.006+02:00,4079.948373,0.005859375,0.9604339599609375,-0.84295654296875
2024-06-20T17:46:06.016+02:00,4079.958431,-0.041900634765625,0.97698974609375,-0.858856201171875
2024-06-20T17:46:06.026+02:00,4079.968489,-0.0951385498046875,0.9273834228515625,-0.873016357421875
2024-06-20T17:46:06.036+02:00,4079.978546,-0.1204833984375,0.88037109375,-0.8427581787109375
2024-06-20T17:46:06.051+02:00,4079.988604,-0.1297454833984375,0.84466552734375,-0.8044281005859375
2024-06-20T17:46:06.059+02:00,4079.998661,-0.1316680908203125,0.824127197265625,-0.7809295654296875
2024-06-20T17:46:06.066+02:00,4080.008719,-0.1407470703125,0.8118896484375,-0.74981689453125
2024-06-20T17:46:06.076+02:00,4080.018776,-0.1661834716796875,0.8170318603515625,-0.7644500732421875
2024-06-20T17:46:06.086+02:00,4080.028834,-0.18316650390625,0.8693084716796875,-0.7854461669921875
2024-06-20T17:46:06.096+02:00,4080.038891,-0.197906494140625,0.943359375,-0.764892578125
2024-06-20T17:46:06.107+02:00,4080.048949,-0.214874267578125,0.953460693359375,-0.737640380859375
2024-06-20T17:46:06.116+02:00,4080.059006,-0.2143096923828125,0.8984832763671875,-0.713714599609375
2024-06-20T17:46:06.126+02:00,4080.069064,-0.19537353515625,0.831939697265625,-0.6393890380859375
2024-06-20T17:46:06.136+02:00,4080.079121,-0.2063140869140625,0.77734375,-0.60906982421875
2024-06-20T17:46:06.147+02:00,4080.089179,-0.2143402099609375,0.757781982421875,-0.6014862060546875
2024-06-20T17:46:06.157+02:00,4080.099237,-0.217987060546875,0.7700653076171875,-0.6060943603515625
2024-06-20T17:46:06.166+02:00,4080.109294,-0.2276458740234375,0.8055877685546875,-0.6257171630859375
2024-06-20T17:46:06.177+02:00,4080.119352,-0.2212371826171875,0.86712646484375,-0.6196136474609375
2024-06-20T17:46:06.187+02:00,4080.129409,-0.2236328125,0.892120361328125,-0.613372802734375
2024-06-20T17:46:06.197+02:00,4080.139467,-0.220855712890625,0.8899993896484375,-0.6266632080078125
2024-06-20T17:46:06.207+02:00,4080.149524,-0.2172393798828125,0.88787841796875,-0.629302978515625
2024-06-20T17:46:06.217+02:00,4080.159582,-0.2201385498046875,0.890411376953125,-0.607269287109375
2024-06-20T17:46:06.227+02:00,4080.169639,-0.2311248779296875,0.9139862060546875,-0.602783203125
2024-06-20T17:46:06.237+02:00,4080.179697,-0.2430572509765625,0.949920654296875,-0.6272735595703125
2024-06-20T17:46:06.247+02:00,4080.189754,-0.25091552734375,0.9886016845703125,-0.6701202392578125
2024-06-20T17:46:06.257+02:00,4080.199812,-0.2612762451171875,1.003677368164062,-0.6859130859375
2024-06-20T17:46:06.267+02:00,4080.209869,-0.2739715576171875,0.9902496337890625,-0.6717987060546875
2024-06-20T17:46:06.277+02:00,4080.219927,-0.2735748291015625,0.9665985107421875,-0.6290740966796875
2024-06-20T17:46:06.287+02:00,4080.229985,-0.2748260498046875,0.9516143798828125,-0.5887603759765625
2024-06-20T17:46:06.297+02:00,4080.240042,-0.276458740234375,0.9505767822265625,-0.585357666015625
2024-06-20T17:46:06.307+02:00,4080.2501,-0.2613372802734375,0.9846649169921875,-0.5708770751953125
2024-06-20T17:46:06.318+02:00,4080.260157,-0.244903564453125,1.017715454101562,-0.5467529296875
2024-06-20T17:46:06.328+02:00,4080.270215,-0.233489990234375,1.009048461914062,-0.5419921875
2024-06-20T17:46:06.338+02:00,4080.280272,-0.2227935791015625,0.978790283203125,-0.539703369140625
2024-06-20T17:46:06.348+02:00,4080.29033,-0.2219696044921875,0.95391845703125,-0.5286712646484375
2024-06-20T17:46:06.358+02:00,4080.300387,-0.2341766357421875,0.9287261962890625,-0.516448974609375
2024-06-20T17:46:06.368+02:00,4080.310445,-0.24371337890625,0.9105224609375,-0.515350341796875
2024-06-20T17:46:06.378+02:00,4080.320502,-0.2446136474609375,0.8964996337890625,-0.52423095703125
2024-06-20T17:46:06.388+02:00,4080.33056,-0.2393798828125,0.8847808837890625,-0.53802490234375
2024-06-20T17:46:06.398+02:00,4080.340617,-0.2358856201171875,0.89483642578125,-0.544952392578125
2024-06-20T17:46:06.408+02:00,4080.350675,-0.2412872314453125,0.9142913818359375,-0.5518798828125
2024-06-20T17:46:06.418+02:00,4080.360733,-0.241729736328125,0.90478515625,-0.5456390380859375
2024-06-20T17:46:06.428+02:00,4080.37079,-0.23321533203125,0.8631744384765625,-0.5298004150390625
2024-06-20T17:46:06.438+02:00,4080.380848,-0.2277069091796875,0.8224945068359375,-0.5171356201171875
2024-06-20T17:46:06.448+02:00,4080.390905,-0.2335357666015625,0.8135223388671875,-0.5267181396484375
2024-06-20T17:46:06.458+02:00,4080.400963,-0.244781494140625,0.844879150390625,-0.5463714599609375
2024-06-20T17:46:06.468+02:00,4080.41102,-0.2492218017578125,0.8634796142578125,-0.57440185546875
2024-06-20T17:46:06.480+02:00,4080.421078,-0.2434844970703125,0.8702545166015625,-0.605255126953125
2024-06-20T17:46:06.488+02:00,4080.431135,-0.22686767578125,0.866424560546875,-0.610992431640625
2024-06-20T17:46:06.499+02:00,4080.441193,-0.212005615234375,0.847198486328125,-0.6151885986328125
2024-06-20T17:46:06.508+02:00,4080.45125,-0.1893463134765625,0.8298797607421875,-0.5900115966796875
2024-06-20T17:46:06.519+02:00,4080.461308,-0.1646881103515625,0.832977294921875,-0.5523681640625
2024-06-20T17:46:06.528+02:00,4080.471366,-0.136688232421875,0.83319091796875,-0.5247344970703125
2024-06-20T17:46:06.539+02:00,4080.481423,-0.1035919189453125,0.815948486328125,-0.506744384765625
2024-06-20T17:46:06.549+02:00,4080.491481,-0.07220458984375,0.8170166015625,-0.4920806884765625
2024-06-20T17:46:06.559+02:00,4080.501538,-0.0528564453125,0.84600830078125,-0.5165252685546875
2024-06-20T17:46:06.569+02:00,4080.511596,-0.0377960205078125,0.906768798828125,-0.5707550048828125
2024-06-20T17:46:06.579+02:00,4080.521653,-0.0255279541015625,0.9748687744140625,-0.58489990234375
2024-06-20T17:46:06.589+02:00,4080.531711,-0.0135040283203125,0.98101806640625,-0.5550079345703125
2024-06-20T17:46:06.599+02:00,4080.541768,-0.0074462890625,0.9369659423828125,-0.486907958984375
2024-06-20T17:46:06.609+02:00,4080.551826,-0.0069122314453125,0.8964080810546875,-0.48089599609375
2024-06-20T17:46:06.619+02:00,4080.561883,-0.002288818359375,0.873443603515625,-0.4593048095703125
2024-06-20T17:46:06.629+02:00,4080.571941,-0.0083770751953125,0.928192138671875,-0.423309326171875
2024-06-20T17:46:06.639+02:00,4080.581998,-0.011199951171875,1.003646850585938,-0.4020233154296875
2024-06-20T17:46:06.649+02:00,4080.592056,-0.005523681640625,1.064102172851562,-0.3551483154296875
2024-06-20T17:46:06.659+02:00,4080.602114,0.0059661865234375,1.080902099609375,-0.2804412841796875
2024-06-20T17:46:06.669+02:00,4080.612171,0.022308349609375,1.044281005859375,-0.233245849609375
2024-06-20T17:46:06.680+02:00,4080.622229,0.0438232421875,1.008392333984375,-0.1927947998046875
2024-06-20T17:46:06.690+02:00,4080.632286,0.054412841796875,0.9872894287109375,-0.2032470703125
2024-06-20T17:46:06.700+02:00,4080.642344,0.0687713623046875,1.02032470703125,-0.2199554443359375
2024-06-20T17:46:06.710+02:00,4080.652401,0.0713348388671875,1.108245849609375,-0.12042236328125
2024-06-20T17:46:06.720+02:00,4080.662459,0.0962066650390625,1.163009643554688,-0.053680419921875
2024-06-20T17:46:06.730+02:00,4080.672516,0.1673431396484375,1.04443359375,0.0469207763671875
2024-06-20T17:46:06.740+02:00,4080.682574,0.246490478515625,0.884063720703125,0.1079559326171875
2024-06-20T17:46:06.750+02:00,4080.692631,0.2998809814453125,0.88433837890625,0.186492919921875
2024-06-20T17:46:06.760+02:00,4080.702689,0.313751220703125,0.9630279541015625,0.1497039794921875
2024-06-20T17:46:06.770+02:00,4080.712747,0.2875518798828125,1.047653198242188,0.045928955078125
2024-06-20T17:46:06.780+02:00,4080.722804,0.2571258544921875,1.053482055664062,0.0407257080078125
2024-06-20T17:46:06.790+02:00,4080.732862,0.24365234375,0.97845458984375,0.107635498046875
2024-06-20T17:46:06.800+02:00,4080.742919,0.2503509521484375,0.909881591796875,0.1432037353515625
2024-06-20T17:46:06.810+02:00,4080.752977,0.28436279296875,0.9122772216796875,0.138031005859375
2024-06-20T17:46:06.820+02:00,4080.763034,0.3242950439453125,0.9733734130859375,0.17156982421875
2024-06-20T17:46:06.830+02:00,4080.773092,0.3396759033203125,1.034149169921875,0.171630859375
2024-06-20T17:46:06.840+02:00,4080.783149,0.33203125,1.063674926757812,0.195098876953125
2024-06-20T17:46:06.850+02:00,4080.793207,0.32293701171875,1.07373046875,0.2097930908203125
2024-06-20T17:46:06.861+02:00,4080.803264,0.318603515625,1.088211059570312,0.2028350830078125
2024-06-20T17:46:06.871+02:00,4080.813322,0.324737548828125,1.083282470703125,0.16583251953125
2024-06-20T17:46:06.881+02:00,4080.823379375,0.3211822509765625,1.0487060546875,0.14923095703125
2024-06-20T17:46:06.891+02:00,4080.833436375,0.320892333984375,0.979217529296875,0.1674957275390625
2024-06-20T17:46:06.901+02:00,4080.843494375,0.346649169921875,0.9351043701171875,0.1986236572265625
2024-06-20T17:46:06.911+02:00,4080.853551375,0.404937744140625,0.92999267578125,0.224639892578125
2024-06-20T17:46:06.921+02:00,4080.863609375,0.4667510986328125,0.936553955078125,0.250732421875
2024-06-20T17:46:06.931+02:00,4080.873666375,0.5081939697265625,0.963348388671875,0.2862396240234375
2024-06-20T17:46:06.941+02:00,4080.883724375,0.5382232666015625,0.9961090087890625,0.3194122314453125
2024-06-20T17:46:06.951+02:00,4080.893781375,0.5382537841796875,1.003509521484375,0.3249053955078125
2024-06-20T17:46:06.961+02:00,4080.903839375,0.530120849609375,0.999542236328125,0.332183837890625
2024-06-20T17:46:06.971+02:00,4080.913897375,0.532806396484375,1.011672973632812,0.3773345947265625
2024-06-20T17:46:06.981+02:00,4080.923954375,0.563690185546875,1.029769897460938,0.355010986328125
2024-06-20T17:46:06.991+02:00,4080.934012375,0.591888427734375,1.031646728515625,0.36322021484375
2024-06-20T17:46:07.001+02:00,4080.944069375,0.594635009765625,1.049484252929688,0.3709564208984375
2024-06-20T17:46:07.011+02:00,4080.954127375,0.5762786865234375,1.078811645507812,0.406036376953125
2024-06-20T17:46:07.021+02:00,4080.964184375,0.5501556396484375,1.084747314453125,0.4109039306640625
2024-06-20T17:46:07.032+02:00,4080.974242375,0.531982421875,1.024398803710938,0.4225311279296875
2024-06-20T17:46:07.042+02:00,4080.984299375,0.507843017578125,0.9651947021484375,0.458465576171875
2024-06-20T17:46:07.052+02:00,4080.994357375,0.49432373046875,0.92279052734375,0.4653167724609375
2024-06-20T17:46:07.062+02:00,4081.004414375,0.53485107421875,0.934906005859375,0.510284423828125
2024-06-20T17:46:07.072+02:00,4081.014472375,0.5504913330078125,1.03448486328125,0.555389404296875
2024-06-20T17:46:07.082+02:00,4081.024530375,0.4954833984375,1.045150756835938,0.5766448974609375
2024-06-20T17:46:07.092+02:00,4081.034587375,0.441741943359375,0.981689453125,0.5413665771484375
2024-06-20T17:46:07.102+02:00,4081.044645375,0.403961181640625,1.014984130859375,0.6155242919921875
2024-06-20T17:46:07.113+02:00,4081.054702375,0.368011474609375,1.026321411132812,0.6567230224609375
2024-06-20T17:46:07.122+02:00,4081.064760375,0.3509521484375,1.023040771484375,0.6852569580078125
2024-06-20T17:46:07.132+02:00,4081.074817375,0.369873046875,1.015625,0.72698974609375
2024-06-20T17:46:07.142+02:00,4081.084875375,0.3878936767578125,0.9545745849609375,0.7544708251953125
2024-06-20T17:46:07.152+02:00,4081.094932375,0.35736083984375,0.880584716796875,0.766326904296875
2024-06-20T17:46:07.162+02:00,4081.104990375,0.2527313232421875,0.7921295166015625,0.5216217041015625
2024-06-20T17:46:07.172+02:00,4081.115047375,0.12615966796875,0.82952880859375,0.255401611328125
2024-06-20T17:46:07.182+02:00,4081.125105375,0.0526123046875,1.073974609375,0.1667022705078125
2024-06-20T17:46:07.193+02:00,4081.135163375,0.1070709228515625,1.30426025390625,-0.003509521484375
2024-06-20T17:46:07.202+02:00,4081.145220375,0.1494903564453125,1.311492919921875,-0.450714111328125
2024-06-20T17:46:07.213+02:00,4081.155278375,0.0735015869140625,1.30999755859375,-0.807281494140625
2024-06-20T17:46:07.223+02:00,4081.165335375,0.089263916015625,1.321609497070312,-0.9029083251953125
2024-06-20T17:46:07.233+02:00,4081.175393375,0.28851318359375,1.147567749023438,-0.9602813720703125
2024-06-20T17:46:07.243+02:00,4081.185450375,0.6057891845703125,1.156387329101562,4.169631958007812
2024-06-20T17:46:07.253+02:00,4081.195508375,-0.152099609375,-1.477325439453125,-5.080154418945312
2024-06-20T17:46:07.263+02:00,4081.205565375,-2.968124389648438,-3.603057861328125,-8.111862182617188
2024-06-20T17:46:07.273+02:00,4081.215623375,-5.193008422851562,0.7415771484375,-4.1722412109375
2024-06-20T17:46:07.283+02:00,4081.225681375,-2.98114013671875,0.2808837890625,-3.685958862304688
2024-06-20T17:46:07.293+02:00,4081.235738375,-0.537322998046875,0.044189453125,-1.556900024414062
2024-06-20T17:46:07.303+02:00,4081.245796375,0.26739501953125,0.437530517578125,-0.0957183837890625
2024-06-20T17:46:07.313+02:00,4081.255853375,1.404525756835938,0.9649810791015625,0.427032470703125
2024-06-20T17:46:07.323+02:00,4081.265911375,2.610610961914062,1.252243041992188,0.4490966796875
2024-06-20T17:46:07.333+02:00,4081.275968375,2.654281616210938,1.118881225585938,0.3917388916015625
2024-06-20T17:46:07.343+02:00,4081.286026375,1.626800537109375,0.949005126953125,-0.0345306396484375
2024-06-20T17:46:07.353+02:00,4081.296083375,0.6126556396484375,0.7065277099609375,-0.16400146484375
2024-06-20T17:46:07.363+02:00,4081.306141375,0.199554443359375,0.376556396484375,-0.187713623046875
2024-06-20T17:46:07.373+02:00,4081.316198375,0.270050048828125,0.210693359375,-0.3508148193359375
2024-06-20T17:46:07.384+02:00,4081.326256375,0.4604339599609375,0.200439453125,-0.42425537109375
2024-06-20T17:46:07.394+02:00,4081.336314375,0.571746826171875,0.22955322265625,-0.55548095703125
2024-06-20T17:46:07.404+02:00,4081.346371375,0.5748443603515625,0.26678466796875,-0.6209564208984375
2024-06-20T17:46:07.414+02:00,4081.356429375,0.524261474609375,0.26177978515625,-0.5320281982421875
2024-06-20T17:46:07.424+02:00,4081.366486375,0.4912109375,0.2329864501953125,-0.4008026123046875
2024-06-20T17:46:07.434+02:00,4081.376544375,0.47393798828125,0.224639892578125,-0.33367919921875
2024-06-20T17:46:07.444+02:00,4081.386601375,0.4403076171875,0.231048583984375,-0.364776611328125
2024-06-20T17:46:07.454+02:00,4081.396659375,0.3794403076171875,0.3263702392578125,-0.4263458251953125
2024-06-20T17:46:07.464+02:00,4081.406716375,0.336517333984375,0.4422760009765625,-0.5343780517578125
2024-06-20T17:46:07.474+02:00,4081.416774375,0.34423828125,0.4629669189453125,-0.6434478759765625
2024-06-20T17:46:07.484+02:00,4081.426832375,0.3813629150390625,0.4239959716796875,-0.703125
2024-06-20T17:46:07.494+02:00,4081.436889375,0.4353485107421875,0.3570709228515625,-0.7285308837890625
2024-06-20T17:46:07.504+02:00,4081.446947375,0.4770050048828125,0.2784423828125,-0.714111328125
2024-06-20T17:46:07.514+02:00,4081.457004375,0.5057220458984375,0.22821044921875,-0.6533966064453125
2024-06-20T17:46:07.524+02:00,4081.467062375,0.5245208740234375,0.2122802734375,-0.61236572265625
2024-06-20T17:46:07.534+02:00,4081.477119375,0.513763427734375,0.2048797607421875,-0.5893707275390625
2024-06-20T17:46:07.545+02:00,4081.487177375,0.4772796630859375,0.2461700439453125,-0.573333740234375
2024-06-20T17:46:07.555+02:00,4081.497234375,0.4307861328125,0.324127197265625,-0.57196044921875
2024-06-20T17:46:07.565+02:00,4081.507292375,0.39251708984375,0.3866424560546875,-0.6088714599609375
2024-06-20T17:46:07.575+02:00,4081.517350375,0.35870361328125,0.4109954833984375,-0.67706298828125
2024-06-20T17:46:07.585+02:00,4081.527407375,0.3399810791015625,0.412841796875,-0.7406005859375
2024-06-20T17:46:07.595+02:00,4081.537465375,0.35711669921875,0.4135894775390625,-0.779754638671875
2024-06-20T17:46:07.605+02:00,4081.547522375,0.3957061767578125,0.4162750244140625,-0.8168182373046875
2024-06-20T17:46:07.615+02:00,4081.557580375,0.426513671875,0.407928466796875,-0.839324951171875
2024-06-20T17:46:07.625+02:00,4081.567637375,0.4380645751953125,0.416778564453125,-0.8450775146484375
2024-06-20T17:46:07.635+02:00,4081.577695375,0.4247283935546875,0.4290924072265625,-0.81494140625
2024-06-20T17:46:07.645+02:00,4081.587752375,0.4109954833984375,0.4279022216796875,-0.9356842041015625
2024-06-20T17:46:07.655+02:00,4081.597810375,0.4421844482421875,0.3950042724609375,-0.695068359375
2024-06-20T17:46:07.665+02:00,4081.607868375,0.4221954345703125,0.3604583740234375,-0.5015869140625
2024-06-20T17:46:07.675+02:00,4081.617925375,0.3905487060546875,0.2886505126953125,-0.3035888671875
2024-06-20T17:46:07.685+02:00,4081.627983375,0.336700439453125,0.239837646484375,-0.2247467041015625
2024-06-20T17:46:07.695+02:00,4081.638040375,0.299224853515625,0.2961578369140625,-0.38812255859375
2024-06-20T17:46:07.705+02:00,4081.648098375,0.250946044921875,0.420013427734375,-0.5299224853515625
2024-06-20T17:46:07.715+02:00,4081.658155375,0.1709136962890625,0.4500274658203125,-0.7241058349609375
2024-06-20T17:46:07.726+02:00,4081.668213375,0.104827880859375,0.6973724365234375,-0.68426513671875
2024-06-20T17:46:07.736+02:00,4081.678270375,-0.18621826171875,1.02337646484375,-0.4194488525390625
2024-06-20T17:46:07.746+02:00,4081.688328375,-0.4316864013671875,0.89630126953125,-0.70880126953125
2024-06-20T17:46:07.756+02:00,4081.698386375,-0.3151397705078125,0.70916748046875,-0.5792236328125
2024-06-20T17:46:07.766+02:00,4081.708443375,-0.064605712890625,0.6912384033203125,-0.1397705078125
2024-06-20T17:46:07.776+02:00,4081.718501375,0.080047607421875,0.628021240234375,0.08880615234375
2024-06-20T17:46:07.786+02:00,4081.728558375,0.1498870849609375,0.4564056396484375,0.19073486328125
2024-06-20T17:46:07.796+02:00,4081.738616375,0.171112060546875,0.43463134765625,0.2262725830078125
2024-06-20T17:46:07.806+02:00,4081.748673375,0.1241455078125,0.5496063232421875,-0.035186767578125
2024-06-20T17:46:07.816+02:00,4081.758731375,0.03900146484375,0.72064208984375,-0.2667236328125
2024-06-20T17:46:07.826+02:00,4081.768788375,-0.07318115234375,0.9048919677734375,-0.4360809326171875
2024-06-20T17:46:07.836+02:00,4081.778846375,-0.1476898193359375,1.032760620117188,-0.475677490234375
2024-06-20T17:46:07.846+02:00,4081.788903375,-0.1284027099609375,1.027969360351562,-0.37274169921875
2024-06-20T17:46:07.857+02:00,4081.798961375,-0.087615966796875,0.9386138916015625,-0.3007965087890625
2024-06-20T17:46:07.866+02:00,4081.809019375,-0.027496337890625,0.9287109375,-0.2092742919921875
2024-06-20T17:46:07.876+02:00,4081.819076375,0.02734375,1.072769165039062,-0.2067718505859375
2024-06-20T17:46:07.886+02:00,4081.829134375,0.092071533203125,1.207565307617188,-0.13311767578125
2024-06-20T17:46:07.896+02:00,4081.839191375,0.16912841796875,1.389373779296875,-0.0209808349609375
2024-06-20T17:46:07.907+02:00,4081.849249375,0.2317047119140625,1.591201782226562,0.127655029296875
2024-06-20T17:46:07.917+02:00,4081.859306375,0.251708984375,1.663055419921875,0.1752471923828125
2024-06-20T17:46:07.927+02:00,4081.869364375,0.2438507080078125,1.697433471679688,0.0225830078125
2024-06-20T17:46:07.937+02:00,4081.879421375,0.2232208251953125,1.6925048828125,-0.0411834716796875
2024-06-20T17:46:07.947+02:00,4081.889479375,0.197509765625,1.57977294921875,-0.1810302734375
2024-06-20T17:46:07.957+02:00,4081.899537375,0.207183837890625,1.434432983398438,-0.2823486328125
2024-06-20T17:46:07.967+02:00,4081.909594375,0.189361572265625,1.34417724609375,-0.1996307373046875
2024-06-20T17:46:07.977+02:00,4081.919652375,0.1548614501953125,1.281051635742188,-0.196929931640625
2024-06-20T17:46:07.987+02:00,4081.929709375,0.1367645263671875,1.271438598632812,-0.17279052734375
2024-06-20T17:46:07.997+02:00,4081.939767375,0.129608154296875,1.38372802734375,-0.175689697265625
2024-06-20T17:46:08.007+02:00,4081.949824375,0.12921142578125,1.518630981445312,-0.1771392822265625
2024-06-20T17:46:08.017+02:00,4081.959882375,0.1440582275390625,1.59820556640625,-0.235931396484375
2024-06-20T17:46:08.027+02:00,4081.969940375,0.16571044921875,1.546112060546875,-0.291839599609375
2024-06-20T17:46:08.037+02:00,4081.979997375,0.1540679931640625,1.444671630859375,-0.3128204345703125
2024-06-20T17:46:08.047+02:00,4081.990055375,0.081939697265625,1.3349609375,-0.3394317626953125
2024-06-20T17:46:08.057+02:00,4082.000112375,-0.0023040771484375,1.158111572265625,-0.4322052001953125
2024-06-20T17:46:08.068+02:00,4082.010170375,-0.0426788330078125,1.050308227539062,-0.468597412109375
2024-06-20T17:46:08.078+02:00,4082.020227375,-0.0489654541015625,1.060714721679688,-0.3346710205078125
2024-06-20T17:46:08.088+02:00,4082.030285375,-0.0692901611328125,1.114486694335938,-0.2052459716796875
2024-06-20T17:46:08.098+02:00,4082.040342375,-0.0649261474609375,1.12994384765625,-0.1697235107421875
2024-06-20T17:46:08.108+02:00,4082.050400375,-0.009246826171875,1.161865234375,-0.1124267578125
2024-06-20T17:46:08.118+02:00,4082.060458375,0.013092041015625,1.188552856445312,-0.214691162109375
2024-06-20T17:46:08.128+02:00,4082.070515375,0.0345001220703125,1.160858154296875,-0.3885498046875
2024-06-20T17:46:08.138+02:00,4082.080573375,0.0203704833984375,1.120025634765625,-0.4892425537109375
2024-06-20T17:46:08.148+02:00,4082.090630375,-0.0458221435546875,1.044601440429688,-0.5892791748046875
2024-06-20T17:46:08.158+02:00,4082.100688375,-0.1111297607421875,1.03759765625,-0.551971435546875
2024-06-20T17:46:08.168+02:00,4082.110745375,-0.1856536865234375,1.056182861328125,-0.5070343017578125
2024-06-20T17:46:08.178+02:00,4082.120803375,-0.22796630859375,1.059173583984375,-0.484649658203125
2024-06-20T17:46:08.188+02:00,4082.130860375,-0.2249603271484375,1.065277099609375,-0.443084716796875
2024-06-20T17:46:08.198+02:00,4082.140918375,-0.194305419921875,1.115676879882812,-0.4080810546875
2024-06-20T17:46:08.208+02:00,4082.150976375,-0.1494293212890625,1.165481567382812,-0.404876708984375
2024-06-20T17:46:08.218+02:00,4082.161033375,-0.1280670166015625,1.133132934570312,-0.40484619140625
2024-06-20T17:46:08.228+02:00,4082.171091375,-0.1320037841796875,1.028182983398438,-0.391021728515625
2024-06-20T17:46:08.239+02:00,4082.181148375,-0.1694488525390625,0.9249267578125,-0.3828887939453125
2024-06-20T17:46:08.249+02:00,4082.191206375,-0.2071075439453125,0.865692138671875,-0.39471435546875
2024-06-20T17:46:08.259+02:00,4082.201263375,-0.21337890625,0.8509674072265625,-0.3843231201171875
2024-06-20T17:46:08.269+02:00,4082.211321375,-0.2241973876953125,0.85723876953125,-0.403656005859375
2024-06-20T17:46:08.279+02:00,4082.221378375,-0.213043212890625,0.8389129638671875,-0.3925933837890625
2024-06-20T17:46:08.289+02:00,4082.231436375,-0.192413330078125,0.8549041748046875,-0.353790283203125
2024-06-20T17:46:08.299+02:00,4082.241494375,-0.1949005126953125,0.881256103515625,-0.393798828125
2024-06-20T17:46:08.309+02:00,4082.251551375,-0.179046630859375,0.8713836669921875,-0.3380889892578125
2024-06-20T17:46:08.319+02:00,4082.261609375,-0.2101287841796875,0.917999267578125,-0.2877960205078125
2024-06-20T17:46:08.329+02:00,4082.271666375,-0.2464141845703125,0.9776763916015625,-0.30316162109375
2024-06-20T17:46:08.339+02:00,4082.281724375,-0.2379608154296875,0.9544830322265625,-0.276153564453125
2024-06-20T17:46:08.349+02:00,4082.291781375,-0.225921630859375,0.9131011962890625,-0.2415771484375
2024-06-20T17:46:08.359+02:00,4082.301839375,-0.225341796875,0.8857269287109375,-0.2255096435546875
2024-06-20T17:46:08.369+02:00,4082.311897375,-0.251495361328125,0.9241180419921875,-0.24041748046875
2024-06-20T17:46:08.379+02:00,4082.321954375,-0.30535888671875,0.980377197265625,-0.286102294921875
2024-06-20T17:46:08.389+02:00,4082.332012375,-0.3052520751953125,0.97137451171875,-0.3492584228515625
2024-06-20T17:46:08.399+02:00,4082.342069375,-0.25262451171875,0.931549072265625,-0.3310089111328125
2024-06-20T17:46:08.409+02:00,4082.352127375,-0.20013427734375,0.8734893798828125,-0.239990234375
2024-06-20T17:46:08.419+02:00,4082.362184375,-0.1955413818359375,0.8347015380859375,-0.1559906005859375
2024-06-20T17:46:08.430+02:00,4082.372242375,-0.1801605224609375,0.9216766357421875,-0.124053955078125
2024-06-20T17:46:08.439+02:00,4082.382299375,-0.1534271240234375,1.0892333984375,-0.0888824462890625
2024-06-20T17:46:08.450+02:00,4082.392357375,-0.157562255859375,1.17889404296875,-0.142242431640625
2024-06-20T17:46:08.460+02:00,4082.402415375,-0.101776123046875,1.18389892578125,-0.1454620361328125
2024-06-20T17:46:08.470+02:00,4082.412472375,-0.07574462890625,1.187652587890625,-0.1035003662109375
2024-06-20T17:46:08.480+02:00,4082.422530375,-0.128173828125,1.198501586914062,-0.1228790283203125
2024-06-20T17:46:08.490+02:00,4082.432587375,-0.1775665283203125,1.22998046875,-0.1343994140625
2024-06-20T17:46:08.500+02:00,4082.442645375,-0.195953369140625,1.303695678710938,-0.1496429443359375
2024-06-20T17:46:08.510+02:00,4082.452702375,-0.19525146484375,1.38458251953125,-0.135772705078125
2024-06-20T17:46:08.520+02:00,4082.462760375,-0.14959716796875,1.320556640625,-0.0777130126953125
2024-06-20T17:46:08.530+02:00,4082.472817375,-0.10406494140625,1.291946411132812,0.056365966796875
2024-06-20T17:46:08.540+02:00,4082.482875375,-0.095367431640625,1.279861450195312,0.09674072265625
2024-06-20T17:46:08.550+02:00,4082.492933375,-0.0859527587890625,1.197662353515625,0.01690673828125
2024-06-20T17:46:08.560+02:00,4082.502990375,-0.06829833984375,1.159103393554688,-0.0178680419921875
2024-06-20T17:46:08.570+02:00,4082.513048375,-0.0834197998046875,1.129913330078125,-0.045806884765625
2024-06-20T17:46:08.580+02:00,4082.523105375,-0.08087158203125,1.046920776367188,-0.091278076171875
2024-06-20T17:46:08.590+02:00,4082.533163375,-0.0476226806640625,0.9917449951171875,-0.0907440185546875
2024-06-20T17:46:08.600+02:00,4082.543220375,-0.035003662109375,0.93890380859375,-0.1100006103515625
2024-06-20T17:46:08.610+02:00,4082.553278375,-0.031890869140625,0.9429931640625,-0.1365203857421875
2024-06-20T17:46:08.621+02:00,4082.563336375,-0.0254669189453125,0.9846038818359375,-0.1489410400390625
2024-06-20T17:46:08.631+02:00,4082.573393375,-0.0458221435546875,0.9586334228515625,-0.1377410888671875
2024-06-20T17:46:08.641+02:00,4082.583451375,-0.098724365234375,0.93017578125,-0.147491455078125
2024-06-20T17:46:08.651+02:00,4082.593508375,-0.1397857666015625,0.850738525390625,-0.188446044921875
2024-06-20T17:46:08.661+02:00,4082.603566375,-0.1516876220703125,0.784820556640625,-0.241058349609375
2024-06-20T17:46:08.671+02:00,4082.613623375,-0.1492462158203125,0.798065185546875,-0.2259368896484375
2024-06-20T17:46:08.681+02:00,4082.623681375,-0.1545867919921875,0.8235321044921875,-0.2373504638671875
2024-06-20T17:46:08.691+02:00,4082.633738375,-0.157470703125,0.87109375,-0.2546844482421875
2024-06-20T17:46:08.701+02:00,4082.643796375,-0.1639404296875,0.90435791015625,-0.2336578369140625
2024-06-20T17:46:08.711+02:00,4082.653854375,-0.1743011474609375,0.870819091796875,-0.2129058837890625
2024-06-20T17:46:08.721+02:00,4082.663911375,-0.1895904541015625,0.8715057373046875,-0.197479248046875
2024-06-20T17:46:08.731+02:00,4082.673969375,-0.196868896484375,0.870391845703125,-0.2100830078125
2024-06-20T17:46:08.741+02:00,4082.684026375,-0.187835693359375,0.8801727294921875,-0.21295166015625
2024-06-20T17:46:08.751+02:00,4082.694084375,-0.16827392578125,0.909393310546875,-0.23309326171875
2024-06-20T17:46:08.761+02:00,4082.704141375,-0.1318511962890625,0.9347076416015625,-0.2550048828125
2024-06-20T17:46:08.772+02:00,4082.714199375,-0.102325439453125,0.9603118896484375,-0.2757568359375
2024-06-20T17:46:08.782+02:00,4082.724257375,-0.0986785888671875,0.987457275390625,-0.299530029296875
2024-06-20T17:46:08.792+02:00,4082.734314375,-0.1129150390625,0.9851531982421875,-0.332550048828125
2024-06-20T17:46:08.802+02:00,4082.744372375,-0.128326416015625,0.9734954833984375,-0.334259033203125
2024-06-20T17:46:08.812+02:00,4082.754429375,-0.146728515625,0.969970703125,-0.30670166015625
2024-06-20T17:46:08.822+02:00,4082.764487375,-0.1459808349609375,0.961395263671875,-0.2928924560546875
2024-06-20T17:46:08.832+02:00,4082.774544375,-0.118255615234375,0.930877685546875,-0.27081298828125
2024-06-20T17:46:08.842+02:00,4082.784602375,-0.0861663818359375,0.890869140625,-0.2428436279296875
2024-06-20T17:46:08.852+02:00,4082.794659375,-0.0640716552734375,0.8754119873046875,-0.2189178466796875
2024-06-20T17:46:08.862+02:00,4082.804717375,-0.049652099609375,0.880401611328125,-0.2117156982421875
2024-06-20T17:46:08.872+02:00,4082.814775375,-0.034027099609375,0.901397705078125,-0.225494384765625
2024-06-20T17:46:08.882+02:00,4082.824833166667,-0.0166778564453125,0.91888427734375,-0.2356109619140625
2024-06-20T17:46:08.892+02:00,4082.834891166667,-0.0145721435546875,0.928741455078125,-0.2640533447265625
2024-06-20T17:46:08.902+02:00,4082.844948166667,-0.024932861328125,0.9573516845703125,-0.3227996826171875
2024-06-20T17:46:08.912+02:00,4082.855006166667,-0.0392913818359375,1.000213623046875,-0.3743438720703125
2024-06-20T17:46:08.922+02:00,4082.865063166667,-0.0640411376953125,0.996795654296875,-0.3906097412109375
2024-06-20T17:46:08.932+02:00,4082.875121166667,-0.0861358642578125,0.9509429931640625,-0.3808135986328125
2024-06-20T17:46:08.942+02:00,4082.885179166667,-0.078857421875,0.89068603515625,-0.35369873046875
2024-06-20T17:46:08.953+02:00,4082.895236166667,-0.05035400390625,0.8242034912109375,-0.324493408203125
2024-06-20T17:46:08.963+02:00,4082.905294166667,-0.0108795166015625,0.7646484375,-0.2741851806640625
2024-06-20T17:46:08.973+02:00,4082.915351166667,0.0256195068359375,0.7370758056640625,-0.250152587890625
2024-06-20T17:46:08.983+02:00,4082.925409166667,0.0680694580078125,0.7915496826171875,-0.2618560791015625
2024-06-20T17:46:08.993+02:00,4082.935466166667,0.113861083984375,0.8883514404296875,-0.27703857421875
2024-06-20T17:46:09.003+02:00,4082.945524166667,0.131439208984375,0.974365234375,-0.344879150390625
2024-06-20T17:46:09.013+02:00,4082.955581166667,0.115447998046875,1.055191040039062,-0.4321441650390625
2024-06-20T17:46:09.023+02:00,4082.965639166667,0.0883026123046875,1.096572875976562,-0.4723052978515625
2024-06-20T17:46:09.033+02:00,4082.975697166667,0.0422210693359375,1.0703125,-0.51092529296875
2024-06-20T17:46:09.043+02:00,4082.985754166667,-0.0059661865234375,0.9752044677734375,-0.532073974609375
2024-06-20T17:46:09.053+02:00,4082.995812166667,-0.03424072265625,0.868804931640625,-0.48626708984375
2024-06-20T17:46:09.063+02:00,4083.005869166667,-0.0359649658203125,0.8141632080078125,-0.3930511474609375
2024-06-20T17:46:09.073+02:00,4083.015927166667,-0.0178375244140625,0.8110504150390625,-0.301422119140625
2024-06-20T17:46:09.083+02:00,4083.025984166667,0.024078369140625,0.828521728515625,-0.240966796875
2024-06-20T17:46:09.093+02:00,4083.036042166667,0.087554931640625,0.855499267578125,-0.217193603515625
2024-06-20T17:46:09.109+02:00,4083.046100166667,0.1529693603515625,0.913421630859375,-0.204864501953125
2024-06-20T17:46:09.114+02:00,4083.056157166667,0.1925506591796875,0.9676971435546875,-0.19476318359375
2024-06-20T17:46:09.123+02:00,4083.066215166667,0.20233154296875,0.9696807861328125,-0.22796630859375
2024-06-20T17:46:09.134+02:00,4083.076272166667,0.1990509033203125,0.95367431640625,-0.2739715576171875
2024-06-20T17:46:09.144+02:00,4083.086330166667,0.190582275390625,0.946380615234375,-0.3098602294921875
2024-06-20T17:46:09.154+02:00,4083.096387166667,0.1829986572265625,0.94866943359375,-0.3300628662109375
2024-06-20T17:46:09.164+02:00,4083.106445166667,0.175872802734375,0.98651123046875,-0.32476806640625
2024-06-20T17:46:09.174+02:00,4083.116502166667,0.156402587890625,1.056198120117188,-0.327362060546875
2024-06-20T17:46:09.184+02:00,4083.126560166667,0.12664794921875,1.140869140625,-0.3270263671875
2024-06-20T17:46:09.194+02:00,4083.136618166667,0.093048095703125,1.2518310546875,-0.28399658203125
2024-06-20T17:46:09.204+02:00,4083.146675166667,0.0458526611328125,1.307159423828125,-0.2792205810546875
2024-06-20T17:46:09.214+02:00,4083.156733166667,0.01171875,1.25665283203125,-0.2890777587890625
2024-06-20T17:46:09.224+02:00,4083.166790166667,0.00531005859375,1.128952026367188,-0.2659759521484375
2024-06-20T17:46:09.234+02:00,4083.176848166667,0.001373291015625,0.95166015625,-0.302642822265625
2024-06-20T17:46:09.244+02:00,4083.186905166667,0.0284881591796875,0.8082122802734375,-0.33343505859375
2024-06-20T17:46:09.254+02:00,4083.196963166667,0.0828704833984375,0.7491455078125,-0.304779052734375
2024-06-20T17:46:09.264+02:00,4083.207021166667,0.1279754638671875,0.774169921875,-0.278778076171875
2024-06-20T17:46:09.274+02:00,4083.217078166667,0.1446075439453125,0.83892822265625,-0.26336669921875
2024-06-20T17:46:09.284+02:00,4083.227136166667,0.1574859619140625,0.9191741943359375,-0.2526397705078125
2024-06-20T17:46:09.295+02:00,4083.237193166667,0.1610107421875,0.9935302734375,-0.24237060546875
2024-06-20T17:46:09.305+02:00,4083.247251166667,0.1540374755859375,1.053298950195312,-0.2398223876953125
2024-06-20T17:46:09.315+02:00,4083.257308166667,0.13006591796875,1.072158813476562,-0.248321533203125
2024-06-20T17:46:09.325+02:00,4083.267366166667,0.0928802490234375,1.027297973632812,-0.28271484375
2024-06-20T17:46:09.335+02:00,4083.277424166667,0.053466796875,0.9460906982421875,-0.2928466796875
2024-06-20T17:46:09.345+02:00,4083.287481166667,0.0150909423828125,0.8700408935546875,-0.29388427734375
2024-06-20T17:46:09.355+02:00,4083.297539166667,-0.0111541748046875,0.8161468505859375,-0.3088836669921875
2024-06-20T17:46:09.365+02:00,4083.307596166667,-0.0110626220703125,0.8009033203125,-0.3067169189453125
2024-06-20T17:46:09.375+02:00,4083.317654166667,0.0073394775390625,0.8314361572265625,-0.289215087890625
2024-06-20T17:46:09.385+02:00,4083.327711166667,0.031341552734375,0.8890533447265625,-0.2688446044921875
2024-06-20T17:46:09.395+02:00,4083.337769166667,0.04730224609375,0.9204559326171875,-0.2407684326171875
2024-06-20T17:46:09.405+02:00,4083.347827166667,0.057373046875,0.9262237548828125,-0.215057373046875
2024-06-20T17:46:09.415+02:00,4083.357884166667,0.0641937255859375,0.917572021484375,-0.1806488037109375
2024-06-20T17:46:09.425+02:00,4083.367942166667,0.0780792236328125,0.9018402099609375,-0.15216064453125
2024-06-20T17:46:09.435+02:00,4083.377999166667,0.097564697265625,0.8852996826171875,-0.1339263916015625
2024-06-20T17:46:09.445+02:00,4083.388057166667,0.1252288818359375,0.8579864501953125,-0.138427734375
2024-06-20T17:46:09.455+02:00,4083.398114166667,0.152587890625,0.843719482421875,-0.154571533203125
2024-06-20T17:46:09.466+02:00,4083.408172166667,0.168212890625,0.8564605712890625,-0.174102783203125
2024-06-20T17:46:09.476+02:00,4083.418229166667,0.1613922119140625,0.8896484375,-0.2178192138671875
2024-06-20T17:46:09.486+02:00,4083.428287166667,0.140228271484375,0.940216064453125,-0.2532501220703125
2024-06-20T17:46:09.496+02:00,4083.438345166667,0.115631103515625,0.992218017578125,-0.2752227783203125
2024-06-20T17:46:09.506+02:00,4083.448402166667,0.099822998046875,1.027862548828125,-0.288116455078125
2024-06-20T17:46:09.516+02:00,4083.458460166667,0.098968505859375,1.049423217773438,-0.3022003173828125
2024-06-20T17:46:09.526+02:00,4083.468517166667,0.103271484375,1.054092407226562,-0.32269287109375
2024-06-20T17:46:09.536+02:00,4083.478575166667,0.10418701171875,1.035736083984375,-0.3391876220703125
2024-06-20T17:46:09.546+02:00,4083.488632166667,0.1047515869140625,1.0010986328125,-0.3470306396484375
2024-06-20T17:46:09.556+02:00,4083.498690166667,0.0960693359375,0.963287353515625,-0.364349365234375
2024-06-20T17:46:09.566+02:00,4083.508748166667,0.0933837890625,0.9209136962890625,-0.3762359619140625
2024-06-20T17:46:09.576+02:00,4083.518805166667,0.09991455078125,0.8851165771484375,-0.3700714111328125
2024-06-20T17:46:09.586+02:00,4083.528863166667,0.1059112548828125,0.86767578125,-0.3744354248046875
2024-06-20T17:46:09.596+02:00,4083.538920166667,0.1190338134765625,0.8875885009765625,-0.3716278076171875
2024-06-20T17:46:09.606+02:00,4083.548978166667,0.1304168701171875,0.93048095703125,-0.3584442138671875
2024-06-20T17:46:09.616+02:00,4083.559035166667,0.133026123046875,0.97088623046875,-0.3608551025390625
2024-06-20T17:46:09.626+02:00,4083.569093166667,0.134185791015625,1.03179931640625,-0.361572265625
2024-06-20T17:46:09.636+02:00,4083.579151166667,0.123748779296875,1.087295532226562,-0.3611907958984375
2024-06-20T17:46:09.647+02:00,4083.589208166667,0.0965118408203125,1.1019287109375,-0.37353515625
2024-06-20T17:46:09.657+02:00,4083.599266166667,0.0650177001953125,1.088851928710938,-0.3760833740234375
2024-06-20T17:46:09.667+02:00,4083.609323166667,0.04364013671875,1.032974243164062,-0.36846923828125
2024-06-20T17:46:09.677+02:00,4083.619381166667,0.0299072265625,0.957305908203125,-0.35919189453125
2024-06-20T17:46:09.687+02:00,4083.629438166667,0.029510498046875,0.8950347900390625,-0.3462066650390625
2024-06-20T17:46:09.697+02:00,4083.639496166667,0.035736083984375,0.8664703369140625,-0.332550048828125
2024-06-20T17:46:09.707+02:00,4083.649554166667,0.0423583984375,0.855499267578125,-0.3101806640625
2024-06-20T17:46:09.717+02:00,4083.659611166667,0.0466766357421875,0.8607635498046875,-0.29571533203125
2024-06-20T17:46:09.727+02:00,4083.669669166667,0.0408935546875,0.8802337646484375,-0.292694091796875
2024-06-20T17:46:09.737+02:00,4083.679726166667,0.0229339599609375,0.9014129638671875,-0.3018951416015625
2024-06-20T17:46:09.747+02:00,4083.689784166667,0.0037078857421875,0.91644287109375,-0.2986602783203125
2024-06-20T17:46:09.757+02:00,4083.699841166667,-0.0211334228515625,0.8929443359375,-0.3159637451171875
2024-06-20T17:46:09.767+02:00,4083.709899166667,-0.033782958984375,0.834503173828125,-0.3560791015625
2024-06-20T17:46:09.777+02:00,4083.719956166667,-0.0308380126953125,0.793060302734375,-0.3775177001953125
2024-06-20T17:46:09.787+02:00,4083.730014166667,-0.02532958984375,0.771514892578125,-0.3953094482421875
2024-06-20T17:46:09.797+02:00,4083.740072166667,-0.02923583984375,0.7788848876953125,-0.4275360107421875
2024-06-20T17:46:09.807+02:00,4083.750129166667,-0.0372314453125,0.7900543212890625,-0.4671783447265625
2024-06-20T17:46:09.818+02:00,4083.760187166667,-0.0560302734375,0.8111114501953125,-0.498260498046875
2024-06-20T17:46:09.828+02:00,4083.770244166667,-0.086517333984375,0.8439483642578125,-0.49774169921875
2024-06-20T17:46:09.838+02:00,4083.780302166667,-0.1318817138671875,0.9398193359375,-0.4785003662109375
2024-06-20T17:46:09.848+02:00,4083.790359166667,-0.1750640869140625,1.071517944335938,-0.455718994140625
2024-06-20T17:46:09.858+02:00,4083.800417166667,-0.2030487060546875,1.11474609375,-0.479278564453125
2024-06-20T17:46:09.868+02:00,4083.810475166667,-0.19659423828125,1.073150634765625,-0.5502777099609375
2024-06-20T17:46:09.878+02:00,4083.820532041667,-0.162567138671875,1.0081787109375,-0.545135498046875
2024-06-20T17:46:09.888+02:00,4083.830590041667,-0.1272735595703125,0.9149627685546875,-0.5239410400390625
2024-06-20T17:46:09.898+02:00,4083.840647041667,-0.0909881591796875,0.820709228515625,-0.5020599365234375
2024-06-20T17:46:09.908+02:00,4083.850705041667,-0.048492431640625,0.747894287109375,-0.5034332275390625
2024-06-20T17:46:09.918+02:00,4083.860762041667,-0.0216827392578125,0.70458984375,-0.5313873291015625
2024-06-20T17:46:09.928+02:00,4083.870820041667,-0.0111236572265625,0.6868438720703125,-0.5520782470703125
2024-06-20T17:46:09.938+02:00,4083.880878041667,-0.0074920654296875,0.7138671875,-0.4799346923828125
2024-06-20T17:46:09.948+02:00,4083.890935041667,-0.03851318359375,0.790069580078125,-0.408203125
2024-06-20T17:46:09.958+02:00,4083.900993041667,-0.084991455078125,0.8653411865234375,-0.418914794921875
2024-06-20T17:46:09.968+02:00,4083.911050041667,-0.11175537109375,0.8867950439453125,-0.45880126953125
2024-06-20T17:46:09.978+02:00,4083.921108041667,-0.1120147705078125,0.877166748046875,-0.4871826171875
2024-06-20T17:46:09.988+02:00,4083.931165041667,-0.1048431396484375,0.84649658203125,-0.5027313232421875
2024-06-20T17:46:09.998+02:00,4083.941223041667,-0.088134765625,0.7814788818359375,-0.51385498046875
2024-06-20T17:46:10.009+02:00,4083.951281041667,-0.06500244140625,0.6904754638671875,-0.5166168212890625
2024-06-20T17:46:10.019+02:00,4083.961338041667,-0.0463409423828125,0.6142425537109375,-0.498779296875
2024-06-20T17:46:10.029+02:00,4083.971396041667,-0.02947998046875,0.5838470458984375,-0.466827392578125
2024-06-20T17:46:10.039+02:00,4083.981453041667,-0.0178070068359375,0.5987701416015625,-0.4505615234375
2024-06-20T17:46:10.049+02:00,4083.991511041667,-0.00091552734375,0.654510498046875,-0.436553955078125
2024-06-20T17:46:10.059+02:00,4084.001568041667,0.0121917724609375,0.7378692626953125,-0.427154541015625
2024-06-20T17:46:10.069+02:00,4084.011626041667,0.0214996337890625,0.808746337890625,-0.4146728515625
2024-06-20T17:46:10.079+02:00,4084.021684041667,0.02996826171875,0.842620849609375,-0.398345947265625
2024-06-20T17:46:10.089+02:00,4084.031741041667,0.03070068359375,0.8345794677734375,-0.407379150390625
2024-06-20T17:46:10.099+02:00,4084.041799041667,0.0244598388671875,0.8152008056640625,-0.43121337890625
2024-06-20T17:46:10.109+02:00,4084.051856041667,0.014801025390625,0.8057098388671875,-0.4459991455078125
2024-06-20T17:46:10.119+02:00,4084.061914041667,0.0083770751953125,0.8107147216796875,-0.470947265625
2024-06-20T17:46:10.129+02:00,4084.071971041667,0.0122528076171875,0.843505859375,-0.5274658203125
2024-06-20T17:46:10.139+02:00,4084.082029041667,0.025604248046875,0.900115966796875,-0.5698699951171875
2024-06-20T17:46:10.149+02:00,4084.092087041667,0.024688720703125,0.9557647705078125,-0.5692596435546875
2024-06-20T17:46:10.159+02:00,4084.102144041667,-0.010772705078125,1.005889892578125,-0.5562744140625
2024-06-20T17:46:10.169+02:00,4084.112202041667,-0.0545806884765625,1.00836181640625,-0.5090789794921875
2024-06-20T17:46:10.180+02:00,4084.122259041667,-0.0907745361328125,0.977569580078125,-0.47601318359375
2024-06-20T17:46:10.190+02:00,4084.132317041667,-0.1004180908203125,0.9354400634765625,-0.441680908203125
2024-06-20T17:46:10.200+02:00,4084.142374041667,-0.0767364501953125,0.89373779296875,-0.411224365234375
2024-06-20T17:46:10.210+02:00,4084.152432041667,-0.035614013671875,0.8857879638671875,-0.423553466796875
2024-06-20T17:46:10.220+02:00,4084.162490041667,0.0051116943359375,0.8969879150390625,-0.450164794921875
2024-06-20T17:46:10.230+02:00,4084.172547041667,0.026824951171875,0.9423980712890625,-0.4882659912109375
2024-06-20T17:46:10.240+02:00,4084.182605041667,0.01861572265625,1.007186889648438,-0.4853363037109375
2024-06-20T17:46:10.250+02:00,4084.192662041667,-0.0171356201171875,1.038055419921875,-0.464752197265625
2024-06-20T17:46:10.260+02:00,4084.202720041667,-0.06787109375,1.0106201171875,-0.4236907958984375
2024-06-20T17:46:10.270+02:00,4084.212777041667,-0.1000213623046875,0.9556884765625,-0.35711669921875
2024-06-20T17:46:10.280+02:00,4084.222835041667,-0.10693359375,0.8968505859375,-0.29937744140625
2024-06-20T17:46:10.290+02:00,4084.232893041667,-0.0817108154296875,0.8327178955078125,-0.25067138671875
2024-06-20T17:46:10.300+02:00,4084.242950041667,-0.0405731201171875,0.7765960693359375,-0.2155303955078125
2024-06-20T17:46:10.310+02:00,4084.253008041667,-0.002288818359375,0.7401580810546875,-0.2164764404296875
2024-06-20T17:46:10.322+02:00,4084.263065041667,0.0331268310546875,0.7446441650390625,-0.2020416259765625
2024-06-20T17:46:10.330+02:00,4084.273123041667,0.04400634765625,0.780731201171875,-0.2195587158203125
2024-06-20T17:46:10.340+02:00,4084.283180041667,0.0410614013671875,0.7695159912109375,-0.25390625
2024-06-20T17:46:10.351+02:00,4084.293238041667,0.0095977783203125,0.75738525390625,-0.2701263427734375
2024-06-20T17:46:10.361+02:00,4084.303296041667,-0.04010009765625,0.789337158203125,-0.274261474609375
2024-06-20T17:46:10.371+02:00,4084.313353041667,-0.0607147216796875,0.8109283447265625,-0.2460479736328125
2024-06-20T17:46:10.381+02:00,4084.323411041667,-0.0576629638671875,0.8217620849609375,-0.26434326171875
2024-06-20T17:46:10.391+02:00,4084.333468041667,-0.029266357421875,0.84393310546875,-0.27178955078125
2024-06-20T17:46:10.401+02:00,4084.343526041667,0.0012664794921875,0.8629608154296875,-0.26312255859375
2024-06-20T17:46:10.411+02:00,4084.353583041667,0.009735107421875,0.86688232421875,-0.262542724609375
2024-06-20T17:46:10.421+02:00,4084.363641041667,-0.0037078857421875,0.8643798828125,-0.278106689453125
2024-06-20T17:46:10.431+02:00,4084.373699041667,-0.0226287841796875,0.91961669921875,-0.2709808349609375
2024-06-20T17:46:10.441+02:00,4084.383756041667,-0.0517578125,1.02752685546875,-0.272674560546875
2024-06-20T17:46:10.451+02:00,4084.393814041667,-0.084930419921875,1.096588134765625,-0.3384857177734375
2024-06-20T17:46:10.461+02:00,4084.403871041667,-0.1057891845703125,1.133682250976562,-0.3996734619140625
2024-06-20T17:46:10.471+02:00,4084.413929041667,-0.1148834228515625,1.176559448242188,-0.39678955078125
2024-06-20T17:46:10.481+02:00,4084.423986041667,-0.1310272216796875,1.198135375976562,-0.333465576171875
2024-06-20T17:46:10.491+02:00,4084.434044041667,-0.1524505615234375,1.177597045898438,-0.2781982421875
2024-06-20T17:46:10.501+02:00,4084.444102041667,-0.164459228515625,1.171920776367188,-0.2294921875
2024-06-20T17:46:10.511+02:00,4084.454159041667,-0.17340087890625,1.179489135742188,-0.2054290771484375
2024-06-20T17:46:10.521+02:00,4084.464217041667,-0.1650238037109375,1.166732788085938,-0.1908416748046875
2024-06-20T17:46:10.532+02:00,4084.474274041667,-0.1417236328125,1.156875610351562,-0.202301025390625
2024-06-20T17:46:10.542+02:00,4084.484332041667,-0.1104278564453125,1.1546630859375,-0.2141876220703125
2024-06-20T17:46:10.552+02:00,4084.494389041667,-0.0885162353515625,1.138885498046875,-0.22650146484375
2024-06-20T17:46:10.562+02:00,4084.504447041667,-0.08251953125,1.104400634765625,-0.2363433837890625
2024-06-20T17:46:10.572+02:00,4084.514505041667,-0.0907440185546875,1.09259033203125,-0.224700927734375
2024-06-20T17:46:10.582+02:00,4084.524562041667,-0.0972900390625,1.079742431640625,-0.2366943359375
2024-06-20T17:46:10.592+02:00,4084.534620041667,-0.0877838134765625,1.04949951171875,-0.2529144287109375
2024-06-20T17:46:10.602+02:00,4084.544677041667,-0.072601318359375,1.027496337890625,-0.264434814453125
2024-06-20T17:46:10.612+02:00,4084.554735041667,-0.05963134765625,1.020339965820312,-0.2649078369140625
2024-06-20T17:46:10.622+02:00,4084.564792041667,-0.0411376953125,1.026290893554688,-0.2470550537109375
2024-06-20T17:46:10.632+02:00,4084.574850041667,-0.0295257568359375,1.030014038085938,-0.2406005859375
2024-06-20T17:46:10.642+02:00,4084.584908041667,-0.0104217529296875,1.01251220703125,-0.25390625
2024-06-20T17:46:10.652+02:00,4084.594965041667,0.0104522705078125,1.027786254882812,-0.25750732421875
2024-06-20T17:46:10.662+02:00,4084.605023041667,0.0088348388671875,0.987091064453125,-0.3291473388671875
2024-06-20T17:46:10.672+02:00,4084.615080041667,-0.0070648193359375,0.9193115234375,-0.397857666015625
2024-06-20T17:46:10.682+02:00,4084.625138041667,-0.0185089111328125,0.9720611572265625,-0.3671722412109375
2024-06-20T17:46:10.692+02:00,4084.635195041667,-0.0312347412109375,0.998748779296875,-0.3430938720703125
2024-06-20T17:46:10.703+02:00,4084.645253041667,-0.0221405029296875,0.97503662109375,-0.33331298828125
2024-06-20T17:46:10.713+02:00,4084.655311041667,0.0073699951171875,0.9405517578125,-0.309356689453125
2024-06-20T17:46:10.723+02:00,4084.665368041667,0.032745361328125,0.907867431640625,-0.2846832275390625
2024-06-20T17:46:10.733+02:00,4084.675426041667,0.0418701171875,0.8759765625,-0.2725830078125
2024-06-20T17:46:10.743+02:00,4084.685483041667,0.0518035888671875,0.87152099609375,-0.2581787109375
2024-06-20T17:46:10.753+02:00,4084.695541041667,0.05645751953125,0.8880157470703125,-0.255218505859375
2024-06-20T17:46:10.763+02:00,4084.705598041667,0.0567626953125,0.904571533203125,-0.2595977783203125
2024-06-20T17:46:10.773+02:00,4084.715656041667,0.0596923828125,0.9038848876953125,-0.2664337158203125
2024-06-20T17:46:10.783+02:00,4084.725714041667,0.071075439453125,0.9296112060546875,-0.2681732177734375
2024-06-20T17:46:10.793+02:00,4084.735771041667,0.0765838623046875,0.963958740234375,-0.2469482421875
2024-06-20T17:46:10.803+02:00,4084.745829041667,0.0639801025390625,0.9842376708984375,-0.255889892578125
2024-06-20T17:46:10.813+02:00,4084.755886041667,0.0529632568359375,0.986175537109375,-0.2875518798828125
2024-06-20T17:46:10.823+02:00,4084.765944041667,0.039764404296875,0.98480224609375,-0.3159942626953125
2024-06-20T17:46:10.833+02:00,4084.776001041667,0.01837158203125,0.9882965087890625,-0.336883544921875
2024-06-20T17:46:10.843+02:00,4084.786059041667,-0.009246826171875,1.015365600585938,-0.3528900146484375
2024-06-20T17:46:10.853+02:00,4084.796117041667,-0.0360107421875,1.022109985351562,-0.360443115234375
2024-06-20T17:46:10.864+02:00,4084.806174041667,-0.0647735595703125,1.0010986328125,-0.378326416015625
2024-06-20T17:46:10.874+02:00,4084.816232041667,-0.09466552734375,0.991455078125,-0.394561767578125
2024-06-20T17:46:10.883+02:00,4084.826289666667,-0.11578369140625,1.036117553710938,-0.3693695068359375
2024-06-20T17:46:10.894+02:00,4084.836347666667,-0.124725341796875,1.072799682617188,-0.3386688232421875
2024-06-20T17:46:10.904+02:00,4084.846404666667,-0.110870361328125,1.0181884765625,-0.3447723388671875
2024-06-20T17:46:10.914+02:00,4084.856462666667,-0.073974609375,0.9482269287109375,-0.35406494140625
2024-06-20T17:46:10.924+02:00,4084.866520666667,-0.0528717041015625,0.884429931640625,-0.3592987060546875
2024-06-20T17:46:10.934+02:00,4084.876577666667,-0.069915771484375,0.7996063232421875,-0.37115478515625
2024-06-20T17:46:10.944+02:00,4084.886635666667,-0.11285400390625,0.755828857421875,-0.40313720703125
2024-06-20T17:46:10.955+02:00,4084.896692666667,-0.1541595458984375,0.76611328125,-0.42376708984375
2024-06-20T17:46:10.964+02:00,4084.906750666667,-0.180938720703125,0.79766845703125,-0.4552459716796875
2024-06-20T17:46:10.974+02:00,4084.916807666667,-0.1919403076171875,0.8390045166015625,-0.478057861328125
2024-06-20T17:46:10.984+02:00,4084.926865666667,-0.1947784423828125,0.872528076171875,-0.476348876953125
2024-06-20T17:46:10.994+02:00,4084.936923666667,-0.2092742919921875,0.9006195068359375,-0.4749755859375
2024-06-20T17:46:11.004+02:00,4084.946980666667,-0.2330169677734375,0.9058685302734375,-0.478485107421875
2024-06-20T17:46:11.015+02:00,4084.957038666667,-0.2599945068359375,0.8819580078125,-0.497711181640625
2024-06-20T17:46:11.025+02:00,4084.967095666667,-0.2892303466796875,0.85693359375,-0.5260467529296875
2024-06-20T17:46:11.036+02:00,4084.977153666667,-0.3072357177734375,0.835540771484375,-0.553253173828125
2024-06-20T17:46:11.045+02:00,4084.987210666667,-0.306304931640625,0.800537109375,-0.5619354248046875
2024-06-20T17:46:11.054+02:00,4084.997268666667,-0.3060455322265625,0.7734527587890625,-0.5718994140625
2024-06-20T17:46:11.065+02:00,4085.007326666667,-0.30401611328125,0.76776123046875,-0.5810699462890625
2024-06-20T17:46:11.075+02:00,4085.017383666667,-0.298370361328125,0.769500732421875,-0.5847320556640625
2024-06-20T17:46:11.085+02:00,4085.027441666667,-0.2847442626953125,0.7959136962890625,-0.57037353515625
2024-06-20T17:46:11.095+02:00,4085.037498666667,-0.2794189453125,0.872589111328125,-0.553466796875
2024-06-20T17:46:11.105+02:00,4085.047556666667,-0.287506103515625,0.9454803466796875,-0.5701904296875
2024-06-20T17:46:11.115+02:00,4085.057613666667,-0.2826385498046875,1.013671875,-0.591888427734375
2024-06-20T17:46:11.125+02:00,4085.067671666667,-0.2728118896484375,1.059417724609375,-0.6025543212890625
2024-06-20T17:46:11.135+02:00,4085.077729666667,-0.2517242431640625,1.013931274414062,-0.6480560302734375
2024-06-20T17:46:11.145+02:00,4085.087786666667,-0.2050018310546875,0.8877716064453125,-0.673797607421875
2024-06-20T17:46:11.155+02:00,4085.097844666667,-0.14825439453125,0.7359466552734375,-0.651885986328125
2024-06-20T17:46:11.165+02:00,4085.107901666667,-0.11016845703125,0.58056640625,-0.628662109375
2024-06-20T17:46:11.175+02:00,4085.117959666667,-0.0914764404296875,0.487762451171875,-0.511688232421875
2024-06-20T17:46:11.185+02:00,4085.128017666667,-0.0863494873046875,0.47540283203125,-0.387847900390625
2024-06-20T17:46:11.195+02:00,4085.138074666667,-0.076507568359375,0.55242919921875,-0.2862091064453125
2024-06-20T17:46:11.205+02:00,4085.148132666667,-0.0554656982421875,0.6671905517578125,-0.270782470703125
2024-06-20T17:46:11.215+02:00,4085.158189666667,-0.01397705078125,0.7393798828125,-0.3198699951171875
2024-06-20T17:46:11.226+02:00,4085.168247666667,0.0423431396484375,0.7725372314453125,-0.36572265625
2024-06-20T17:46:11.236+02:00,4085.178304666667,0.110260009765625,0.7289886474609375,-0.4357452392578125
2024-06-20T17:46:11.246+02:00,4085.188362666667,0.1736602783203125,0.6390533447265625,-0.48101806640625
2024-06-20T17:46:11.256+02:00,4085.198419666667,0.2016448974609375,0.5481109619140625,-0.4815216064453125
2024-06-20T17:46:11.266+02:00,4085.208477666667,0.1752777099609375,0.475372314453125,-0.451019287109375
2024-06-20T17:46:11.276+02:00,4085.218535666667,0.117401123046875,0.429351806640625,-0.39093017578125
2024-06-20T17:46:11.286+02:00,4085.228592666667,0.0540313720703125,0.4512786865234375,-0.3401031494140625
2024-06-20T17:46:11.296+02:00,4085.238650666667,0.0146484375,0.547271728515625,-0.3170928955078125
2024-06-20T17:46:11.306+02:00,4085.248707666667,0.0085296630859375,0.6787109375,-0.3440399169921875
2024-06-20T17:46:11.316+02:00,4085.258765666667,0.031951904296875,0.7777862548828125,-0.4372100830078125
2024-06-20T17:46:11.326+02:00,4085.268822666667,0.071502685546875,0.824188232421875,-0.52850341796875
2024-06-20T17:46:11.336+02:00,4085.278880666667,0.1087646484375,0.7808074951171875,-0.598876953125
2024-06-20T17:46:11.346+02:00,4085.288938666667,0.130828857421875,0.671417236328125,-0.6458892822265625
2024-06-20T17:46:11.356+02:00,4085.298995666667,0.1279296875,0.5709686279296875,-0.6187744140625
2024-06-20T17:46:11.366+02:00,4085.309053666667,0.08538818359375,0.52447509765625,-0.5830535888671875
2024-06-20T17:46:11.376+02:00,4085.319110666667,0.0164947509765625,0.5119781494140625,-0.5644073486328125
2024-06-20T17:46:11.387+02:00,4085.329168666667,-0.0575408935546875,0.589569091796875,-0.55206298828125
2024-06-20T17:46:11.397+02:00,4085.339226666667,-0.126495361328125,0.7715606689453125,-0.590576171875
2024-06-20T17:46:11.407+02:00,4085.349283666667,-0.1597900390625,0.9263458251953125,-0.650360107421875
2024-06-20T17:46:11.417+02:00,4085.359341666667,-0.158050537109375,0.94085693359375,-0.7399444580078125
2024-06-20T17:46:11.427+02:00,4085.369398666667,-0.0958251953125,0.8132476806640625,-0.807891845703125
2024-06-20T17:46:11.437+02:00,4085.379456666667,-0.0396575927734375,0.6847381591796875,-0.8350067138671875
2024-06-20T17:46:11.447+02:00,4085.389513666667,-0.0411529541015625,0.5876617431640625,-0.8458251953125
2024-06-20T17:46:11.457+02:00,4085.399571666667,-0.0821380615234375,0.4939117431640625,-0.8235626220703125
2024-06-20T17:46:11.467+02:00,4085.409629666667,-0.12872314453125,0.394866943359375,-0.78533935546875
2024-06-20T17:46:11.477+02:00,4085.419686666667,-0.171051025390625,0.46795654296875,-0.773284912109375
2024-06-20T17:46:11.487+02:00,4085.429744666667,-0.200836181640625,0.706787109375,-0.858642578125
2024-06-20T17:46:11.497+02:00,4085.439801666667,-0.197357177734375,0.950164794921875,-1.03485107421875
2024-06-20T17:46:11.507+02:00,4085.449859666667,-0.169921875,1.057342529296875,-1.208740234375
2024-06-20T17:46:11.517+02:00,4085.459916666667,-0.1502838134765625,1.046417236328125,-1.270477294921875
2024-06-20T17:46:11.527+02:00,4085.469974666667,-0.15399169921875,0.929931640625,-1.224273681640625
2024-06-20T17:46:11.537+02:00,4085.480032666667,-0.2153167724609375,0.824920654296875,-1.13458251953125
2024-06-20T17:46:11.547+02:00,4085.490089666667,-0.3046722412109375,0.794677734375,-1.08953857421875
2024-06-20T17:46:11.557+02:00,4085.500147666667,-0.3721160888671875,0.8505401611328125,-1.07611083984375
2024-06-20T17:46:11.567+02:00,4085.510204666667,-0.423370361328125,1.03631591796875,-1.138473510742188
2024-06-20T17:46:11.578+02:00,4085.520262666667,-0.4581451416015625,1.233718872070312,-1.24688720703125
2024-06-20T17:46:11.588+02:00,4085.530319666667,-0.463714599609375,1.278366088867188,-1.317367553710938
2024-06-20T17:46:11.598+02:00,4085.540377666667,-0.495819091796875,1.16815185546875,-1.446441650390625
2024-06-20T17:46:11.608+02:00,4085.550435666667,-0.486907958984375,0.988494873046875,-1.451019287109375
2024-06-20T17:46:11.618+02:00,4085.560492666667,-0.5460052490234375,0.905303955078125,-1.363388061523438
2024-06-20T17:46:11.628+02:00,4085.570550666667,-0.641357421875,0.8952178955078125,-1.314971923828125
2024-06-20T17:46:11.638+02:00,4085.580607666667,-0.787384033203125,1.115493774414062,-1.353302001953125
2024-06-20T17:46:11.648+02:00,4085.590665666667,-0.9967498779296875,1.308822631835938,-1.567977905273438
2024-06-20T17:46:11.658+02:00,4085.600723666667,-1.07684326171875,1.317733764648438,-1.571014404296875
2024-06-20T17:46:11.668+02:00,4085.610780666667,-1.14715576171875,1.20556640625,-1.34344482421875
2024-06-20T17:46:11.678+02:00,4085.620838666667,-1.198593139648438,1.024932861328125,-1.149887084960938
2024-06-20T17:46:11.688+02:00,4085.630895666667,-1.199508666992188,0.9204559326171875,-1.077545166015625
2024-06-20T17:46:11.698+02:00,4085.640953666667,-1.2435302734375,0.8006439208984375,-1.219146728515625
2024-06-20T17:46:11.708+02:00,4085.651010666667,-1.0894775390625,0.64324951171875,-1.436660766601562
2024-06-20T17:46:11.718+02:00,4085.661068666667,-0.90179443359375,0.6168670654296875,-1.42437744140625
2024-06-20T17:46:11.728+02:00,4085.671126666667,-0.8587188720703125,0.8627166748046875,-1.388259887695312
2024-06-20T17:46:11.738+02:00,4085.681183666667,-0.8294830322265625,1.14532470703125,-1.405807495117188
2024-06-20T17:46:11.749+02:00,4085.691241666667,-0.7041015625,1.248443603515625,-1.454025268554688
2024-06-20T17:46:11.759+02:00,4085.701298666667,-0.6513824462890625,1.35498046875,-0.5673065185546875
2024-06-20T17:46:11.769+02:00,4085.711356666667,-0.584808349609375,0.795623779296875,-1.021453857421875
2024-06-20T17:46:11.779+02:00,4085.721413666667,-0.3175506591796875,0.3729400634765625,-0.5699462890625
2024-06-20T17:46:11.789+02:00,4085.731471666667,-0.2703399658203125,0.07373046875,-0.426666259765625
2024-06-20T17:46:11.799+02:00,4085.741529666667,-0.2230072021484375,0.007781982421875,-0.2755584716796875
2024-06-20T17:46:11.809+02:00,4085.751586666667,-0.2845458984375,0.340179443359375,-0.098114013671875
2024-06-20T17:46:11.819+02:00,4085.761644666667,-0.4049530029296875,0.7769927978515625,-0.112518310546875
2024-06-20T17:46:11.829+02:00,4085.771701666667,-0.56512451171875,1.1285400390625,-0.2337493896484375
2024-06-20T17:46:11.839+02:00,4085.781759666667,-0.67364501953125,1.324310302734375,-0.31365966796875
2024-06-20T17:46:11.849+02:00,4085.791816666667,-0.721954345703125,1.22088623046875,-0.3252410888671875
2024-06-20T17:46:11.859+02:00,4085.801874666667,-0.748565673828125,0.954803466796875,-0.321502685546875
2024-06-20T17:46:11.869+02:00,4085.811932666667,-0.7443389892578125,0.712158203125,-0.31744384765625
2024-06-20T17:46:11.879+02:00,4085.821988291667,-0.7548828125,0.587982177734375,-0.2450714111328125
2024-06-20T17:46:11.889+02:00,4085.832046291667,-0.802032470703125,0.47967529296875,-0.118072509765625
2024-06-20T17:46:11.900+02:00,4085.842103291667,-0.84478759765625,0.3977203369140625,-0.01300048828125
2024-06-20T17:46:11.909+02:00,4085.852161291667,-0.87884521484375,0.372802734375,0.069854736328125
2024-06-20T17:46:11.920+02:00,4085.862219291667,-0.871612548828125,0.3338775634765625,0.073272705078125
2024-06-20T17:46:11.930+02:00,4085.872276291667,-0.83380126953125,0.3365936279296875,0.088287353515625
2024-06-20T17:46:11.940+02:00,4085.882334291667,-0.79779052734375,0.3333740234375,0.035186767578125
2024-06-20T17:46:11.950+02:00,4085.892391291667,-0.7244415283203125,0.287750244140625,0.0247344970703125
2024-06-20T17:46:11.960+02:00,4085.902449291667,-0.70281982421875,0.3068695068359375,0.0506744384765625
2024-06-20T17:46:11.970+02:00,4085.912506291667,-0.68499755859375,0.3679962158203125,0.042022705078125
2024-06-20T17:46:11.980+02:00,4085.922564291667,-0.644195556640625,0.422210693359375,-0.0135498046875
2024-06-20T17:46:11.990+02:00,4085.932622291667,-0.587799072265625,0.438873291015625,-0.0598297119140625
2024-06-20T17:46:12.000+02:00,4085.942679291667,-0.5136566162109375,0.38702392578125,-0.042083740234375
2024-06-20T17:46:12.010+02:00,4085.952737291667,-0.501068115234375,0.3026885986328125,-0.0646820068359375
2024-06-20T17:46:12.020+02:00,4085.962794291667,-0.4690704345703125,0.3321533203125,-0.016632080078125
2024-06-20T17:46:12.030+02:00,4085.972852291667,-0.4044647216796875,0.2651214599609375,0.006805419921875
2024-06-20T17:46:12.040+02:00,4085.982909291667,-0.3937835693359375,0.21697998046875,0.0668182373046875
2024-06-20T17:46:12.050+02:00,4085.992967291667,-0.3222808837890625,0.2180328369140625,0.055511474609375
2024-06-20T17:46:12.060+02:00,4086.003025291667,-0.25189208984375,0.3506317138671875,0.1111907958984375
2024-06-20T17:46:12.070+02:00,4086.013082291667,-0.202667236328125,0.4127655029296875,0.061309814453125
2024-06-20T17:46:12.080+02:00,4086.023140291667,-0.13934326171875,0.455718994140625,0.060333251953125
2024-06-20T17:46:12.091+02:00,4086.033197291667,-0.088958740234375,0.512359619140625,0.04339599609375
2024-06-20T17:46:12.101+02:00,4086.043255291667,-0.013092041015625,0.555206298828125,-0.03271484375
2024-06-20T17:46:12.111+02:00,4086.053312291667,0.072296142578125,0.6248321533203125,-0.1701812744140625
2024-06-20T17:46:12.121+02:00,4086.063370291667,0.1554718017578125,0.7614593505859375,-0.2053070068359375
2024-06-20T17:46:12.131+02:00,4086.073428291667,0.2586212158203125,0.857147216796875,-0.27484130859375
2024-06-20T17:46:12.141+02:00,4086.083485291667,0.357940673828125,0.90814208984375,-0.279144287109375
2024-06-20T17:46:12.151+02:00,4086.093543291667,0.42010498046875,0.9183807373046875,-0.2300872802734375
2024-06-20T17:46:12.161+02:00,4086.103600291667,0.396820068359375,0.946624755859375,-0.1852264404296875
2024-06-20T17:46:12.171+02:00,4086.113658291667,0.354095458984375,1.018783569335938,-0.26104736328125
2024-06-20T17:46:12.181+02:00,4086.123716291667,0.3185577392578125,1.1036376953125,-0.413116455078125
2024-06-20T17:46:12.191+02:00,4086.133773291667,0.2959442138671875,1.207244873046875,-0.5704345703125
2024-06-20T17:46:12.201+02:00,4086.143831291667,0.3251190185546875,1.263076782226562,-0.7545623779296875
2024-06-20T17:46:12.211+02:00,4086.153888291667,0.3930511474609375,1.295013427734375,-0.823272705078125
2024-06-20T17:46:12.221+02:00,4086.163946291667,0.4457855224609375,1.3433837890625,-0.7049407958984375
2024-06-20T17:46:12.231+02:00,4086.174003291667,0.4450836181640625,1.462600708007812,-0.566741943359375
2024-06-20T17:46:12.241+02:00,4086.184061291667,0.3826751708984375,1.617782592773438,-0.5650177001953125
2024-06-20T17:46:12.251+02:00,4086.194119291667,0.3003692626953125,1.722793579101562,-0.680877685546875
2024-06-20T17:46:12.261+02:00,4086.204176291667,0.2617340087890625,1.694488525390625,-0.74774169921875
2024-06-20T17:46:12.272+02:00,4086.214234291667,0.2513427734375,1.605728149414062,-0.8410491943359375
2024-06-20T17:46:12.282+02:00,4086.224291291667,0.248626708984375,1.518096923828125,-0.947113037109375
2024-06-20T17:46:12.292+02:00,4086.234349291667,0.2585601806640625,1.458724975585938,-0.896392822265625
2024-06-20T17:46:12.302+02:00,4086.244406291667,0.2906341552734375,1.37896728515625,-0.7986297607421875
2024-06-20T17:46:12.312+02:00,4086.254464291667,0.3321990966796875,1.346817016601562,-0.6605682373046875
2024-06-20T17:46:12.322+02:00,4086.264522291667,0.356048583984375,1.3585205078125,-0.57427978515625
2024-06-20T17:46:12.332+02:00,4086.274579291667,0.296417236328125,1.114303588867188,-0.7406768798828125
2024-06-20T17:46:12.342+02:00,4086.284637291667,0.232147216796875,0.9669952392578125,-0.681915283203125
2024-06-20T17:46:12.352+02:00,4086.294694291667,0.15667724609375,1.068740844726562,-0.5652923583984375
2024-06-20T17:46:12.362+02:00,4086.304752291667,0.0739593505859375,1.115127563476562,-0.6124114990234375
2024-06-20T17:46:12.372+02:00,4086.314809291667,0.0210113525390625,1.130966186523438,-0.7539825439453125
2024-06-20T17:46:12.382+02:00,4086.324867291667,0.0322113037109375,1.159805297851562,-0.7684478759765625
2024-06-20T17:46:12.392+02:00,4086.334925291667,0.0591278076171875,1.127349853515625,-0.7387542724609375
2024-06-20T17:46:12.402+02:00,4086.344982291667,0.077362060546875,1.03228759765625,-0.7618255615234375
2024-06-20T17:46:12.412+02:00,4086.355040291667,0.1027679443359375,0.9282073974609375,-0.758026123046875
2024-06-20T17:46:12.422+02:00,4086.365097291667,0.1077880859375,0.8642578125,-0.7165985107421875
2024-06-20T17:46:12.432+02:00,4086.375155291667,0.08782958984375,0.798858642578125,-0.678802490234375
2024-06-20T17:46:12.442+02:00,4086.385213291667,0.05908203125,0.7411346435546875,-0.6632843017578125
2024-06-20T17:46:12.453+02:00,4086.395270291667,0.042449951171875,0.7081146240234375,-0.5897369384765625
2024-06-20T17:46:12.463+02:00,4086.405328291667,0.0041046142578125,0.7447357177734375,-0.501983642578125
2024-06-20T17:46:12.473+02:00,4086.415385291667,-0.0503082275390625,0.822357177734375,-0.476715087890625
2024-06-20T17:46:12.483+02:00,4086.425443291667,-0.0804290771484375,0.8563690185546875,-0.488250732421875
2024-06-20T17:46:12.493+02:00,4086.435500291667,-0.1005096435546875,0.874176025390625,-0.4942626953125
2024-06-20T17:46:12.503+02:00,4086.445558291667,-0.1223907470703125,0.909423828125,-0.5167388916015625
2024-06-20T17:46:12.513+02:00,4086.455616291667,-0.132171630859375,0.9558868408203125,-0.533111572265625
2024-06-20T17:46:12.523+02:00,4086.465673291667,-0.1213836669921875,0.958160400390625,-0.555999755859375
2024-06-20T17:46:12.533+02:00,4086.475731291667,-0.089141845703125,0.935272216796875,-0.5631103515625
2024-06-20T17:46:12.543+02:00,4086.485788291667,-0.061767578125,0.9453582763671875,-0.5228118896484375
2024-06-20T17:46:12.553+02:00,4086.495846291667,-0.0601654052734375,0.9694061279296875,-0.5063934326171875
2024-06-20T17:46:12.563+02:00,4086.505903291667,-0.0661468505859375,0.9760894775390625,-0.4992828369140625
2024-06-20T17:46:12.573+02:00,4086.515961291667,-0.067138671875,0.9573516845703125,-0.4114837646484375
2024-06-20T17:46:12.583+02:00,4086.526019291667,-0.084716796875,0.968414306640625,-0.31561279296875
2024-06-20T17:46:12.593+02:00,4086.536076291667,-0.123016357421875,1.040863037109375,-0.2827301025390625
2024-06-20T17:46:12.603+02:00,4086.546134291667,-0.1486968994140625,1.089752197265625,-0.285858154296875
2024-06-20T17:46:12.614+02:00,4086.556191291667,-0.15618896484375,1.07427978515625,-0.280120849609375
2024-06-20T17:46:12.624+02:00,4086.566249291667,-0.1417083740234375,1.018722534179688,-0.286102294921875
2024-06-20T17:46:12.634+02:00,4086.576307291667,-0.10894775390625,0.9441070556640625,-0.291351318359375
2024-06-20T17:46:12.644+02:00,4086.586364291667,-0.0723724365234375,0.8927459716796875,-0.2969970703125
2024-06-20T17:46:12.654+02:00,4086.596422291667,-0.0425872802734375,0.88629150390625,-0.295654296875
2024-06-20T17:46:12.664+02:00,4086.606479291667,-0.0229949951171875,0.9167022705078125,-0.2950897216796875
2024-06-20T17:46:12.674+02:00,4086.616537291667,-0.011016845703125,0.97711181640625,-0.314910888671875
2024-06-20T17:46:12.684+02:00,4086.626594291667,-0.008819580078125,1.058013916015625,-0.329376220703125
2024-06-20T17:46:12.694+02:00,4086.636652291667,-0.0147857666015625,1.139236450195312,-0.3516693115234375
2024-06-20T17:46:12.704+02:00,4086.646710291667,-0.0258331298828125,1.205078125,-0.3939361572265625
2024-06-20T17:46:12.714+02:00,4086.656767291667,-0.043609619140625,1.226760864257812,-0.431976318359375
2024-06-20T17:46:12.724+02:00,4086.666825291667,-0.073394775390625,1.18841552734375,-0.4749603271484375
2024-06-20T17:46:12.734+02:00,4086.676882291667,-0.0811614990234375,1.113983154296875,-0.4853668212890625
2024-06-20T17:46:12.744+02:00,4086.686940291667,-0.0750274658203125,1.085861206054688,-0.4768218994140625
2024-06-20T17:46:12.754+02:00,4086.696997291667,-0.0662078857421875,1.093597412109375,-0.4235382080078125
2024-06-20T17:46:12.764+02:00,4086.707055291667,-0.0676422119140625,1.1346435546875,-0.399688720703125
2024-06-20T17:46:12.774+02:00,4086.717113291667,-0.0740509033203125,1.159637451171875,-0.379150390625
2024-06-20T17:46:12.784+02:00,4086.727170291667,-0.061859130859375,1.15045166015625,-0.3276824951171875
2024-06-20T17:46:12.795+02:00,4086.737228291667,-0.0416412353515625,1.118011474609375,-0.2738800048828125
2024-06-20T17:46:12.805+02:00,4086.747285291667,-0.025421142578125,1.096786499023438,-0.2533721923828125
2024-06-20T17:46:12.815+02:00,4086.757343291667,0.007476806640625,1.024734497070312,-0.2435760498046875
2024-06-20T17:46:12.825+02:00,4086.767401291667,0.0546112060546875,0.95135498046875,-0.2295074462890625
2024-06-20T17:46:12.835+02:00,4086.777458291667,0.08306884765625,0.8968658447265625,-0.2277069091796875
2024-06-20T17:46:12.845+02:00,4086.787516291667,0.117401123046875,0.8524932861328125,-0.195770263671875
2024-06-20T17:46:12.855+02:00,4086.797573291667,0.135162353515625,0.8363494873046875,-0.15008544921875
2024-06-20T17:46:12.865+02:00,4086.807631291667,0.126861572265625,0.852630615234375,-0.12579345703125
2024-06-20T17:46:12.875+02:00,4086.817688291667,0.12615966796875,0.8624725341796875,-0.1107940673828125
2024-06-20T17:46:12.885+02:00,4086.82774675,0.131866455078125,0.912017822265625,-0.11151123046875
2024-06-20T17:46:12.895+02:00,4086.83780475,0.1530609130859375,0.9182281494140625,-0.1337432861328125
2024-06-20T17:46:12.905+02:00,4086.84786175,0.222564697265625,0.8271331787109375,-0.1527099609375
2024-06-20T17:46:12.915+02:00,4086.85791975,0.3031463623046875,0.7891387939453125,-0.184356689453125
2024-06-20T17:46:12.925+02:00,4086.86797675,0.336700439453125,0.80035400390625,-0.2308502197265625
2024-06-20T17:46:12.935+02:00,4086.87803475,0.3428192138671875,0.8166961669921875,-0.310638427734375
2024-06-20T17:46:12.945+02:00,4086.88809175,0.3448486328125,0.8679962158203125,-0.329010009765625
2024-06-20T17:46:12.955+02:00,4086.89814975,0.300201416015625,0.929901123046875,-0.326507568359375
2024-06-20T17:46:12.965+02:00,4086.90820775,0.258758544921875,0.9962158203125,-0.3248748779296875
2024-06-20T17:46:12.976+02:00,4086.91826475,0.2169647216796875,1.046051025390625,-0.37933349609375
2024-06-20T17:46:12.986+02:00,4086.92832275,0.2119293212890625,1.01446533203125,-0.416961669921875
2024-06-20T17:46:12.996+02:00,4086.93837975,0.2158355712890625,1.033615112304688,-0.49072265625
2024-06-20T17:46:13.006+02:00,4086.94843775,0.23541259765625,0.99652099609375,-0.5045623779296875
2024-06-20T17:46:13.016+02:00,4086.95849475,0.2400054931640625,0.962066650390625,-0.4560546875
2024-06-20T17:46:13.026+02:00,4086.96855275,0.21173095703125,0.940216064453125,-0.5088958740234375
2024-06-20T17:46:13.036+02:00,4086.97861075,0.2120513916015625,0.8894500732421875,-0.4774322509765625
2024-06-20T17:46:13.046+02:00,4086.98866775,0.1526641845703125,0.9035797119140625,-0.48455810546875
2024-06-20T17:46:13.056+02:00,4086.99872575,0.1152801513671875,0.8909759521484375,-0.514495849609375
2024-06-20T17:46:13.066+02:00,4087.00878275,0.1197357177734375,0.864013671875,-0.5384979248046875
2024-06-20T17:46:13.076+02:00,4087.01884075,0.1385345458984375,0.820892333984375,-0.5735626220703125
2024-06-20T17:46:13.086+02:00,4087.02889875,0.163177490234375,0.7421112060546875,-0.4874420166015625
2024-06-20T17:46:13.096+02:00,4087.03895575,0.095703125,0.770477294921875,-0.4246826171875
2024-06-20T17:46:13.106+02:00,4087.04901375,0.0200347900390625,0.748260498046875,-0.447357177734375
2024-06-20T17:46:13.116+02:00,4087.05907075,-0.02484130859375,0.6775665283203125,-0.36907958984375
2024-06-20T17:46:13.127+02:00,4087.06912875,-0.080657958984375,0.6180267333984375,-0.264984130859375
2024-06-20T17:46:13.136+02:00,4087.07918575,-0.1116943359375,0.5599365234375,-0.21710205078125
2024-06-20T17:46:13.147+02:00,4087.08924375,-0.113006591796875,0.533416748046875,-0.234832763671875
2024-06-20T17:46:13.157+02:00,4087.09930175,-0.067047119140625,0.489990234375,-0.3240509033203125
2024-06-20T17:46:13.167+02:00,4087.10935875,0.0070953369140625,0.474700927734375,-0.3983917236328125
2024-06-20T17:46:13.177+02:00,4087.11941675,0.0424346923828125,0.4903411865234375,-0.503509521484375
2024-06-20T17:46:13.187+02:00,4087.12947375,0.0434112548828125,0.621337890625,-0.6117401123046875
2024-06-20T17:46:13.197+02:00,4087.13953175,0.0123748779296875,0.8245697021484375,-0.8818511962890625
2024-06-20T17:46:13.207+02:00,4087.14958875,0.0347137451171875,0.945159912109375,-1.05340576171875
2024-06-20T17:46:13.217+02:00,4087.15964675,0.0644683837890625,0.9931182861328125,-1.153732299804688
2024-06-20T17:46:13.227+02:00,4087.16970475,0.11669921875,0.909423828125,-1.160842895507812
2024-06-20T17:46:13.237+02:00,4087.17976175,0.136138916015625,0.7843780517578125,-1.15234375
2024-06-20T17:46:13.247+02:00,4087.18981975,0.1518096923828125,0.6897430419921875,-1.145034790039062
2024-06-20T17:46:13.257+02:00,4087.19987675,0.163421630859375,0.6313323974609375,-1.127426147460938
2024-06-20T17:46:13.267+02:00,4087.20993475,0.170379638671875,0.562164306640625,-1.062057495117188
2024-06-20T17:46:13.277+02:00,4087.21999275,0.1548309326171875,0.65972900390625,-0.968414306640625
2024-06-20T17:46:13.287+02:00,4087.23004975,0.0598602294921875,0.8528900146484375,-1.012344360351562
2024-06-20T17:46:13.297+02:00,4087.24010775,-0.078857421875,1.039138793945312,-1.145660400390625
2024-06-20T17:46:13.307+02:00,4087.25016475,-0.185699462890625,1.093276977539062,-1.286285400390625
2024-06-20T17:46:13.318+02:00,4087.26022275,-0.244171142578125,1.029556274414062,-1.402191162109375
2024-06-20T17:46:13.328+02:00,4087.27027975,-0.298309326171875,0.908416748046875,-1.433807373046875
2024-06-20T17:46:13.338+02:00,4087.28033775,-0.380035400390625,0.79913330078125,-1.347244262695312
2024-06-20T17:46:13.348+02:00,4087.29039575,-0.509307861328125,0.8716888427734375,-1.287445068359375
2024-06-20T17:46:13.358+02:00,4087.30045275,-0.726226806640625,1.101852416992188,-1.155075073242188
2024-06-20T17:46:13.368+02:00,4087.31051075,-1.151992797851562,1.724090576171875,-1.44342041015625
2024-06-20T17:46:13.378+02:00,4087.32056775,-1.51947021484375,2.08837890625,-1.777603149414062
2024-06-20T17:46:13.388+02:00,4087.33062575,-1.67340087890625,2.107406616210938,-1.788330078125
2024-06-20T17:46:13.398+02:00,4087.34068375,-1.413742065429688,1.429840087890625,-1.761428833007812
2024-06-20T17:46:13.408+02:00,4087.35074075,-0.9959564208984375,0.743896484375,-1.7069091796875
2024-06-20T17:46:13.418+02:00,4087.36079875,-0.7185516357421875,0.3727569580078125,-1.61907958984375
2024-06-20T17:46:13.428+02:00,4087.37085575,-0.4144134521484375,0.29345703125,-1.260162353515625
2024-06-20T17:46:13.438+02:00,4087.38091375,-0.2932281494140625,0.7358856201171875,-1.004135131835938
2024-06-20T17:46:13.448+02:00,4087.39097075,-0.1346893310546875,0.8633270263671875,-1.251327514648438
2024-06-20T17:46:13.458+02:00,4087.40102875,-0.0313720703125,1.05535888671875,-1.093963623046875
2024-06-20T17:46:13.468+02:00,4087.41108675,-0.0515899658203125,0.9912567138671875,-0.86309814453125
2024-06-20T17:46:13.478+02:00,4087.42114375,-0.0563507080078125,0.940826416015625,-0.5744476318359375
2024-06-20T17:46:13.488+02:00,4087.43120175,-0.032257080078125,1.043731689453125,-0.362457275390625
2024-06-20T17:46:13.498+02:00,4087.44125875,0.019561767578125,1.156829833984375,-0.2843780517578125
2024-06-20T17:46:13.508+02:00,4087.45131675,0.0323638916015625,1.269668579101562,-0.2254791259765625
2024-06-20T17:46:13.519+02:00,4087.46137375,-0.0666046142578125,1.305892944335938,-0.23858642578125
2024-06-20T17:46:13.529+02:00,4087.47143175,-0.19573974609375,1.215194702148438,-0.186553955078125
2024-06-20T17:46:13.539+02:00,4087.48148975,-0.2947540283203125,1.104660034179688,-0.0863494873046875
2024-06-20T17:46:13.549+02:00,4087.49154675,-0.3482208251953125,0.97747802734375,-0.0573272705078125
2024-06-20T17:46:13.559+02:00,4087.50160475,-0.34423828125,0.7851715087890625,-0.00909423828125
2024-06-20T17:46:13.569+02:00,4087.51166175,-0.319854736328125,0.563385009765625,0.1108245849609375
2024-06-20T17:46:13.579+02:00,4087.52171975,-0.3240814208984375,0.47802734375,0.2265472412109375
2024-06-20T17:46:13.589+02:00,4087.53177775,-0.3108673095703125,0.4261932373046875,0.185882568359375
2024-06-20T17:46:13.599+02:00,4087.54183475,-0.25323486328125,0.3576507568359375,0.1078033447265625
2024-06-20T17:46:13.609+02:00,4087.55189275,-0.17535400390625,0.386749267578125,0.2244415283203125
2024-06-20T17:46:13.619+02:00,4087.56194975,-0.20819091796875,0.5292510986328125,0.1844635009765625
2024-06-20T17:46:13.629+02:00,4087.57200775,-0.211151123046875,0.5803985595703125,0.0470733642578125
2024-06-20T17:46:13.639+02:00,4087.58206475,-0.2022857666015625,0.5730133056640625,0.04058837890625
2024-06-20T17:46:13.649+02:00,4087.59212275,-0.1430511474609375,0.4673004150390625,-0.086181640625
2024-06-20T17:46:13.660+02:00,4087.60218075,-0.0635986328125,0.350799560546875,-0.134429931640625
2024-06-20T17:46:13.669+02:00,4087.61223775,-0.0450286865234375,0.2180328369140625,-0.1761932373046875
2024-06-20T17:46:13.680+02:00,4087.62229575,-0.0137481689453125,0.077972412109375,-0.108551025390625
2024-06-20T17:46:13.690+02:00,4087.63235275,-0.00830078125,-0.03948974609375,-0.22491455078125
2024-06-20T17:46:13.700+02:00,4087.64241075,0.0719757080078125,-0.1056365966796875,-0.2353973388671875
2024-06-20T17:46:13.710+02:00,4087.65246875,0.1393890380859375,-0.229888916015625,-0.20831298828125
2024-06-20T17:46:13.720+02:00,4087.66252575,0.2012176513671875,-0.2815704345703125,-0.2302703857421875
2024-06-20T17:46:13.730+02:00,4087.67258375,0.32720947265625,-0.301727294921875,-0.271270751953125
2024-06-20T17:46:13.740+02:00,4087.68264075,0.437774658203125,-0.3785858154296875,-0.4293060302734375
2024-06-20T17:46:13.750+02:00,4087.69269875,0.537139892578125,-0.3333892822265625,-0.4673919677734375
2024-06-20T17:46:13.760+02:00,4087.70275575,0.60552978515625,-0.0902252197265625,-0.42041015625
2024-06-20T17:46:13.770+02:00,4087.71281375,0.6466522216796875,0.134918212890625,-0.355133056640625
2024-06-20T17:46:13.780+02:00,4087.72287175,0.634185791015625,0.4623260498046875,-0.2154693603515625
2024-06-20T17:46:13.790+02:00,4087.73292875,0.541748046875,0.953216552734375,-0.4653472900390625
2024-06-20T17:46:13.800+02:00,4087.74298675,0.5006866455078125,1.193862915039062,-0.686370849609375
2024-06-20T17:46:13.810+02:00,4087.75304375,0.4941253662109375,1.291015625,-0.91656494140625
2024-06-20T17:46:13.820+02:00,4087.76310175,0.507110595703125,1.3084716796875,-1.110305786132812
2024-06-20T17:46:13.831+02:00,4087.77315875,0.4616851806640625,1.3453369140625,-1.099166870117188
2024-06-20T17:46:13.841+02:00,4087.78321675,0.290557861328125,1.122268676757812,-1.193572998046875
2024-06-20T17:46:13.851+02:00,4087.79327475,0.195831298828125,0.5347900390625,-0.9896240234375
2024-06-20T17:46:13.861+02:00,4087.80333175,0.22113037109375,0.379730224609375,-0.556396484375
2024-06-20T17:46:13.871+02:00,4087.81338975,0.2565460205078125,0.1359405517578125,-0.4346771240234375
2024-06-20T17:46:13.881+02:00,4087.823447,0.2351531982421875,-0.1667938232421875,-0.737060546875
2024-06-20T17:46:13.891+02:00,4087.833505,0.21612548828125,-0.443359375,-0.876129150390625
2024-06-20T17:46:13.901+02:00,4087.843563,0.182220458984375,-0.6899261474609375,-0.8944854736328125
2024-06-20T17:46:13.911+02:00,4087.85362,0.2677764892578125,-0.71832275390625,-0.7739105224609375
2024-06-20T17:46:13.921+02:00,4087.863678,0.4048919677734375,-0.4546356201171875,-0.5154266357421875
2024-06-20T17:46:13.931+02:00,4087.873735,0.495147705078125,-0.19891357421875,-0.3597259521484375
2024-06-20T17:46:13.941+02:00,4087.883793,0.56427001953125,-0.07568359375,-0.3487396240234375
2024-06-20T17:46:13.951+02:00,4087.89385,0.5051727294921875,-0.2136077880859375,-0.309478759765625
2024-06-20T17:46:13.961+02:00,4087.903908,0.36541748046875,-0.5216827392578125,-0.237335205078125
2024-06-20T17:46:13.971+02:00,4087.913966,0.3411407470703125,-0.56573486328125,-0.2084503173828125
2024-06-20T17:46:13.981+02:00,4087.924023,0.3585205078125,-0.2538299560546875,0.1983642578125
2024-06-20T17:46:13.991+02:00,4087.934081,0.2436370849609375,0.0791473388671875,0.2605743408203125
2024-06-20T17:46:14.001+02:00,4087.944138,0.1673736572265625,0.4303436279296875,0.1699676513671875
2024-06-20T17:46:14.011+02:00,4087.954196,0.1458740234375,0.84466552734375,0.216156005859375
2024-06-20T17:46:14.022+02:00,4087.964254,0.112274169921875,1.173385620117188,0.3496246337890625
2024-06-20T17:46:14.032+02:00,4087.974311,0.0426788330078125,1.210968017578125,0.432647705078125
2024-06-20T17:46:14.044+02:00,4087.984369,-0.0190277099609375,1.513351440429688,0.6825408935546875
2024-06-20T17:46:14.054+02:00,4087.994426,-0.091064453125,2.020751953125,0.5716094970703125
2024-06-20T17:46:14.062+02:00,4088.004484,-0.137939453125,2.79931640625,0.072052001953125
2024-06-20T17:46:14.072+02:00,4088.014541,-0.22576904296875,3.332229614257812,-0.256622314453125
2024-06-20T17:46:14.082+02:00,4088.024599,-0.316558837890625,2.908859252929688,-0.7946929931640625
2024-06-20T17:46:14.092+02:00,4088.034657,-0.2869110107421875,1.972152709960938,-0.978271484375
2024-06-20T17:46:14.102+02:00,4088.044714,-0.2430419921875,1.307830810546875,-1.165908813476562
2024-06-20T17:46:14.112+02:00,4088.054772,-0.1885833740234375,1.283981323242188,-1.152633666992188
2024-06-20T17:46:14.122+02:00,4088.064829,-0.070556640625,1.732162475585938,-0.9977569580078125
2024-06-20T17:46:14.132+02:00,4088.074887,-0.020355224609375,1.5819091796875,-0.8690338134765625
2024-06-20T17:46:14.142+02:00,4088.084944,0.0424957275390625,0.994903564453125,-0.698638916015625
2024-06-20T17:46:14.152+02:00,4088.095002,0.174407958984375,0.5048370361328125,-0.401214599609375
2024-06-20T17:46:14.162+02:00,4088.10506,0.1932220458984375,0.121826171875,-0.1040191650390625
2024-06-20T17:46:14.172+02:00,4088.115117,0.1475982666015625,-0.097320556640625,-0.36187744140625
2024-06-20T17:46:14.182+02:00,4088.125175,0.15789794921875,0.024871826171875,-0.584014892578125
2024-06-20T17:46:14.192+02:00,4088.135232,0.201202392578125,0.4390106201171875,-0.909393310546875
2024-06-20T17:46:14.203+02:00,4088.14529,0.29266357421875,0.891082763671875,-1.134765625
2024-06-20T17:46:14.213+02:00,4088.155348,0.4010467529296875,1.137359619140625,-0.7780609130859375
2024-06-20T17:46:14.223+02:00,4088.165405,0.393096923828125,0.76544189453125,-0.3789825439453125
2024-06-20T17:46:14.233+02:00,4088.175463,0.32159423828125,0.3992462158203125,-0.2067718505859375
2024-06-20T17:46:14.243+02:00,4088.18552,0.18817138671875,0.4937591552734375,-0.094573974609375
2024-06-20T17:46:14.253+02:00,4088.195578,0.0227813720703125,1.025222778320312,-0.22607421875
2024-06-20T17:46:14.263+02:00,4088.205636,-0.11328125,1.425811767578125,-0.1107025146484375
2024-06-20T17:46:14.273+02:00,4088.215693,-0.27777099609375,1.8544921875,0.0147857666015625
2024-06-20T17:46:14.283+02:00,4088.225751,-0.392822265625,1.505355834960938,-0.3123321533203125
2024-06-20T17:46:14.293+02:00,4088.235808,-0.298004150390625,0.8085479736328125,-0.7419586181640625
2024-06-20T17:46:14.303+02:00,4088.245866,-0.018310546875,1.6007080078125,-0.4701690673828125
2024-06-20T17:46:14.313+02:00,4088.255923,0.02679443359375,1.700668334960938,-0.713897705078125
2024-06-20T17:46:14.323+02:00,4088.265981,-0.0554351806640625,1.369049072265625,-0.68658447265625
2024-06-20T17:46:14.333+02:00,4088.276039,-0.012847900390625,1.616500854492188,-0.1681976318359375
2024-06-20T17:46:14.343+02:00,4088.286096,-0.0402984619140625,1.525131225585938,-0.134735107421875
2024-06-20T17:46:14.353+02:00,4088.296154,-0.173187255859375,1.299209594726562,-0.2833404541015625
2024-06-20T17:46:14.363+02:00,4088.306211,-0.23187255859375,1.1837158203125,-0.44757080078125
2024-06-20T17:46:14.374+02:00,4088.316269,-0.192626953125,1.158798217773438,-0.4998626708984375
2024-06-20T17:46:14.384+02:00,4088.326326,-0.1451263427734375,1.204452514648438,-0.3617706298828125
2024-06-20T17:46:14.394+02:00,4088.336384,-0.140716552734375,1.117111206054688,-0.302642822265625
2024-06-20T17:46:14.404+02:00,4088.346442,-0.1533050537109375,0.9888153076171875,-0.508819580078125
2024-06-20T17:46:14.414+02:00,4088.356499,-0.0928802490234375,0.98150634765625,-0.4884033203125
2024-06-20T17:46:14.424+02:00,4088.366557,-0.07672119140625,1.314987182617188,0.1317596435546875
2024-06-20T17:46:14.434+02:00,4088.376614,-0.06744384765625,1.30572509765625,0.055450439453125
2024-06-20T17:46:14.444+02:00,4088.386672,0.0823974609375,1.046875,-0.2132110595703125
2024-06-20T17:46:14.454+02:00,4088.39673,0.1585235595703125,0.932647705078125,-0.309478759765625
2024-06-20T17:46:14.464+02:00,4088.406787,0.0858306884765625,0.9392242431640625,-0.2991180419921875
2024-06-20T17:46:14.474+02:00,4088.416845,-0.005035400390625,0.78607177734375,-0.2705841064453125
2024-06-20T17:46:14.484+02:00,4088.426902,-0.0062255859375,0.59521484375,-0.458038330078125
2024-06-20T17:46:14.494+02:00,4088.43696,0.087188720703125,0.642608642578125,-0.195892333984375
2024-06-20T17:46:14.504+02:00,4088.447018,0.122955322265625,0.8111419677734375,0.12017822265625
2024-06-20T17:46:14.514+02:00,4088.457075,0.1060638427734375,0.8533477783203125,-0.0355377197265625
2024-06-20T17:46:14.524+02:00,4088.467133,0.0748291015625,0.6211395263671875,-0.166839599609375
2024-06-20T17:46:14.534+02:00,4088.47719,0.0020294189453125,0.4505462646484375,-0.180999755859375
2024-06-20T17:46:14.545+02:00,4088.487248,-0.0313568115234375,0.5701446533203125,-0.1915435791015625
2024-06-20T17:46:14.555+02:00,4088.497305,-0.041168212890625,0.8726043701171875,-0.177337646484375
2024-06-20T17:46:14.565+02:00,4088.507363,-0.1060028076171875,0.9331512451171875,-0.38720703125
2024-06-20T17:46:14.575+02:00,4088.517421,-0.0668792724609375,0.847259521484375,-0.66192626953125
2024-06-20T17:46:14.585+02:00,4088.527478,0.0457305908203125,0.8473052978515625,-0.458953857421875
2024-06-20T17:46:14.595+02:00,4088.537536,0.0444793701171875,0.8537445068359375,-0.3131256103515625
2024-06-20T17:46:14.605+02:00,4088.547593,0.0104827880859375,0.983642578125,-0.3515625
2024-06-20T17:46:14.615+02:00,4088.557651,0.014892578125,0.9056854248046875,-0.47454833984375
2024-06-20T17:46:14.625+02:00,4088.567709,0.0009918212890625,0.8317718505859375,-0.3954620361328125
2024-06-20T17:46:14.635+02:00,4088.577766,0.007354736328125,1.047805786132812,-0.3637237548828125
2024-06-20T17:46:14.645+02:00,4088.587824,0.034576416015625,1.18707275390625,-0.3810577392578125
2024-06-20T17:46:14.655+02:00,4088.597881,0.0465545654296875,1.217361450195312,-0.417327880859375
2024-06-20T17:46:14.665+02:00,4088.607939,0.09405517578125,1.41424560546875,-0.32012939453125
2024-06-20T17:46:14.675+02:00,4088.617996,0.1038818359375,1.36505126953125,-0.4431304931640625
2024-06-20T17:46:14.685+02:00,4088.628054,0.0852203369140625,1.119094848632812,-0.652587890625
2024-06-20T17:46:14.695+02:00,4088.638112,0.08062744140625,0.975006103515625,-0.7692108154296875
2024-06-20T17:46:14.705+02:00,4088.648169,0.04278564453125,0.91363525390625,-0.777496337890625
2024-06-20T17:46:14.715+02:00,4088.658227,0.00372314453125,0.8538665771484375,-0.7873687744140625
2024-06-20T17:46:14.726+02:00,4088.668284,-0.004425048828125,0.8696441650390625,-0.7362823486328125
2024-06-20T17:46:14.736+02:00,4088.678342,0.010955810546875,0.9296875,-0.622894287109375
2024-06-20T17:46:14.746+02:00,4088.6884,0.00579833984375,1.055343627929688,-0.52056884765625
2024-06-20T17:46:14.756+02:00,4088.698457,-0.009429931640625,1.115631103515625,-0.4441375732421875
2024-06-20T17:46:14.766+02:00,4088.708515,-0.0291290283203125,1.144119262695312,-0.4290313720703125
2024-06-20T17:46:14.776+02:00,4088.718572,-0.079498291015625,1.096588134765625,-0.4508514404296875
2024-06-20T17:46:14.786+02:00,4088.72863,-0.1514434814453125,0.961212158203125,-0.5405731201171875
2024-06-20T17:46:14.796+02:00,4088.738687,-0.1949310302734375,0.774200439453125,-0.571380615234375
2024-06-20T17:46:14.806+02:00,4088.748745,-0.228057861328125,0.5796356201171875,-0.59942626953125
2024-06-20T17:46:14.816+02:00,4088.758803,-0.25897216796875,0.4608306884765625,-0.6151885986328125
2024-06-20T17:46:14.826+02:00,4088.76886,-0.2661590576171875,0.4273834228515625,-0.64593505859375
2024-06-20T17:46:14.836+02:00,4088.778918,-0.28863525390625,0.4829254150390625,-0.607940673828125
2024-06-20T17:46:14.846+02:00,4088.788975,-0.33758544921875,0.53802490234375,-0.5944976806640625
2024-06-20T17:46:14.856+02:00,4088.799033,-0.3765869140625,0.5333251953125,-0.6087188720703125
2024-06-20T17:46:14.866+02:00,4088.809091,-0.37139892578125,0.560791015625,-0.6162567138671875
2024-06-20T17:46:14.876+02:00,4088.819148,-0.3497772216796875,0.640350341796875,-0.6743316650390625
2024-06-20T17:46:14.886+02:00,4088.829205375,-0.2983245849609375,0.671295166015625,-0.7581634521484375
2024-06-20T17:46:14.896+02:00,4088.839262375,-0.2090301513671875,0.6514129638671875,-0.7953948974609375
2024-06-20T17:46:14.907+02:00,4088.849320375,-0.1174468994140625,0.636016845703125,-0.8373565673828125
2024-06-20T17:46:14.917+02:00,4088.859377375,-0.0259857177734375,0.5946807861328125,-0.901641845703125
2024-06-20T17:46:14.927+02:00,4088.869435375,0.038299560546875,0.5882415771484375,-0.980316162109375
2024-06-20T17:46:14.937+02:00,4088.879493375,0.0448150634765625,0.6267547607421875,-0.99114990234375
2024-06-20T17:46:14.947+02:00,4088.889550375,-0.01470947265625,0.7562713623046875,-0.94805908203125
2024-06-20T17:46:14.957+02:00,4088.899608375,-0.1188507080078125,0.9380035400390625,-0.961334228515625
2024-06-20T17:46:14.967+02:00,4088.909665375,-0.2237701416015625,1.03253173828125,-1.078033447265625
2024-06-20T17:46:14.977+02:00,4088.919723375,-0.2812957763671875,1.024154663085938,-1.1597900390625
2024-06-20T17:46:14.987+02:00,4088.929781375,-0.2783203125,0.9106597900390625,-1.23388671875
2024-06-20T17:46:14.997+02:00,4088.939838375,-0.2154998779296875,0.71270751953125,-1.325408935546875
2024-06-20T17:46:15.007+02:00,4088.949896375,-0.1223602294921875,0.5296173095703125,-1.407546997070312
2024-06-20T17:46:15.017+02:00,4088.959953375,-0.0667877197265625,0.473358154296875,-1.412033081054688
2024-06-20T17:46:15.027+02:00,4088.970011375,-0.0771484375,0.5348663330078125,-1.374267578125
2024-06-20T17:46:15.038+02:00,4088.980069375,-0.1217193603515625,0.640411376953125,-1.34710693359375
2024-06-20T17:46:15.048+02:00,4088.990126375,-0.153350830078125,0.8242950439453125,-1.334640502929688
2024-06-20T17:46:15.059+02:00,4089.000184375,-0.15008544921875,0.9330596923828125,-1.337265014648438
2024-06-20T17:46:15.067+02:00,4089.010241375,-0.085235595703125,0.9712982177734375,-1.290054321289062
2024-06-20T17:46:15.078+02:00,4089.020299375,-0.025054931640625,0.9867706298828125,-1.32598876953125
2024-06-20T17:46:15.088+02:00,4089.030356375,0.030853271484375,0.8756256103515625,-1.373794555664062
2024-06-20T17:46:15.098+02:00,4089.040414375,0.070465087890625,0.7293701171875,-1.416946411132812
2024-06-20T17:46:15.108+02:00,4089.050472375,0.0624237060546875,0.5695648193359375,-1.388519287109375
2024-06-20T17:46:15.118+02:00,4089.060529375,-0.00616455078125,0.4155120849609375,-1.289947509765625
2024-06-20T17:46:15.128+02:00,4089.070587375,-0.0955657958984375,0.33343505859375,-0.9527587890625
2024-06-20T17:46:15.138+02:00,4089.080644375,-0.2356414794921875,0.6365814208984375,-0.7674713134765625
2024-06-20T17:46:15.148+02:00,4089.090702375,-0.40203857421875,1.065155029296875,-0.8124847412109375
2024-06-20T17:46:15.158+02:00,4089.100760375,-0.545623779296875,1.211807250976562,-1.01226806640625
2024-06-20T17:46:15.168+02:00,4089.110817375,-0.607940673828125,1.081130981445312,-0.880096435546875
2024-06-20T17:46:15.178+02:00,4089.120875375,-0.683258056640625,0.7838897705078125,-0.7066497802734375
2024-06-20T17:46:15.188+02:00,4089.130932375,-0.766265869140625,0.4379730224609375,-0.7360687255859375
2024-06-20T17:46:15.198+02:00,4089.140990375,-0.833648681640625,0.4098968505859375,-0.6440887451171875
2024-06-20T17:46:15.208+02:00,4089.151047375,-0.9768524169921875,0.71441650390625,-0.595977783203125
2024-06-20T17:46:15.218+02:00,4089.161105375,-1.124435424804688,1.400314331054688,-0.413055419921875
2024-06-20T17:46:15.228+02:00,4089.171163375,-1.344512939453125,1.77996826171875,-0.8936614990234375
2024-06-20T17:46:15.239+02:00,4089.181220375,-1.180099487304688,1.501724243164062,-0.9411468505859375
2024-06-20T17:46:15.249+02:00,4089.191278375,-1.088226318359375,1.165603637695312,-0.6583251953125
2024-06-20T17:46:15.259+02:00,4089.201335375,-1.090606689453125,0.7805633544921875,-0.61895751953125
2024-06-20T17:46:15.269+02:00,4089.211393375,-1.081008911132812,0.7075653076171875,-0.53472900390625
2024-06-20T17:46:15.279+02:00,4089.221451375,-1.031005859375,0.7952117919921875,-0.477264404296875
2024-06-20T17:46:15.289+02:00,4089.231508375,-0.9105987548828125,0.8993988037109375,-0.498931884765625
2024-06-20T17:46:15.299+02:00,4089.241566375,-0.778045654296875,0.935272216796875,-0.4923248291015625
2024-06-20T17:46:15.309+02:00,4089.251623375,-0.688323974609375,0.8424072265625,-0.4231109619140625
2024-06-20T17:46:15.319+02:00,4089.261681375,-0.6389923095703125,0.8314666748046875,-0.338653564453125
2024-06-20T17:46:15.329+02:00,4089.271739375,-0.605987548828125,0.8201904296875,-0.3714447021484375
2024-06-20T17:46:15.339+02:00,4089.281796375,-0.54315185546875,0.7394256591796875,-0.380096435546875
2024-06-20T17:46:15.349+02:00,4089.291854375,-0.49920654296875,0.6617431640625,-0.33050537109375
2024-06-20T17:46:15.359+02:00,4089.301911375,-0.4749755859375,0.5696868896484375,-0.3037872314453125
2024-06-20T17:46:15.369+02:00,4089.311969375,-0.4786529541015625,0.5672454833984375,-0.2876129150390625
2024-06-20T17:46:15.379+02:00,4089.322026375,-0.481475830078125,0.5739593505859375,-0.2466278076171875
2024-06-20T17:46:15.389+02:00,4089.332084375,-0.46820068359375,0.552093505859375,-0.1670989990234375
2024-06-20T17:46:15.399+02:00,4089.342142375,-0.4541473388671875,0.5252227783203125,-0.0647125244140625
2024-06-20T17:46:15.409+02:00,4089.352199375,-0.437469482421875,0.51226806640625,0
2024-06-20T17:46:15.419+02:00,4089.362257375,-0.411224365234375,0.4941253662109375,0.029144287109375
2024-06-20T17:46:15.430+02:00,4089.372314375,-0.37847900390625,0.4886322021484375,0.054351806640625
2024-06-20T17:46:15.440+02:00,4089.382372375,-0.3506622314453125,0.492340087890625,0.0906524658203125
2024-06-20T17:46:15.450+02:00,4089.392430375,-0.3336029052734375,0.497894287109375,0.143524169921875
2024-06-20T17:46:15.460+02:00,4089.402487375,-0.3223114013671875,0.499969482421875,0.1700897216796875
2024-06-20T17:46:15.470+02:00,4089.412545375,-0.3161468505859375,0.488616943359375,0.167999267578125
2024-06-20T17:46:15.480+02:00,4089.422602375,-0.30999755859375,0.467620849609375,0.1321258544921875
2024-06-20T17:46:15.490+02:00,4089.432660375,-0.30010986328125,0.4454193115234375,0.11468505859375
2024-06-20T17:46:15.500+02:00,4089.442717375,-0.2888031005859375,0.4188995361328125,0.102142333984375
2024-06-20T17:46:15.510+02:00,4089.452775375,-0.2813720703125,0.4161834716796875,0.09228515625
2024-06-20T17:46:15.520+02:00,4089.462833375,-0.2793426513671875,0.4351959228515625,0.050933837890625
2024-06-20T17:46:15.530+02:00,4089.472890375,-0.2761993408203125,0.4059295654296875,0.01361083984375
2024-06-20T17:46:15.540+02:00,4089.482948375,-0.2717742919921875,0.3978118896484375,-0.0059967041015625
2024-06-20T17:46:15.550+02:00,4089.493005375,-0.2716217041015625,0.4685821533203125,-0.0040130615234375
2024-06-20T17:46:15.560+02:00,4089.503063375,-0.271209716796875,0.531036376953125,-0.0177764892578125
2024-06-20T17:46:15.570+02:00,4089.513121375,-0.2458953857421875,0.52996826171875,-0.0338592529296875
2024-06-20T17:46:15.580+02:00,4089.523178375,-0.202880859375,0.6073760986328125,-0.1151275634765625
2024-06-20T17:46:15.590+02:00,4089.533236375,-0.13836669921875,0.75701904296875,-0.17486572265625
2024-06-20T17:46:15.600+02:00,4089.543293375,-0.0475006103515625,0.864715576171875,-0.282562255859375
2024-06-20T17:46:15.610+02:00,4089.553351375,0.0707244873046875,0.94232177734375,-0.4645233154296875
2024-06-20T17:46:15.621+02:00,4089.563409375,0.2139892578125,1.020767211914062,-0.5035858154296875
2024-06-20T17:46:15.631+02:00,4089.573466375,0.2920989990234375,1.199234008789062,-0.493896484375
2024-06-20T17:46:15.641+02:00,4089.583524375,0.304779052734375,1.311386108398438,-0.571929931640625
2024-06-20T17:46:15.651+02:00,4089.593581375,0.298858642578125,1.372406005859375,-0.704681396484375
2024-06-20T17:46:15.661+02:00,4089.603639375,0.3213653564453125,1.446868896484375,-0.6967010498046875
2024-06-20T17:46:15.671+02:00,4089.613697375,0.3506927490234375,1.4659423828125,-0.6051788330078125
2024-06-20T17:46:15.681+02:00,4089.623754375,0.3549652099609375,1.479095458984375,-0.5903167724609375
2024-06-20T17:46:15.691+02:00,4089.633812375,0.34600830078125,1.47381591796875,-0.596832275390625
2024-06-20T17:46:15.701+02:00,4089.643869375,0.353607177734375,1.461837768554688,-0.6393280029296875
2024-06-20T17:46:15.711+02:00,4089.653927375,0.376068115234375,1.475021362304688,-0.7606353759765625
2024-06-20T17:46:15.721+02:00,4089.663984375,0.3928985595703125,1.484222412109375,-0.8148956298828125
2024-06-20T17:46:15.731+02:00,4089.674042375,0.374542236328125,1.418014526367188,-0.9154510498046875
2024-06-20T17:46:15.741+02:00,4089.684100375,0.3515472412109375,1.321609497070312,-0.9769287109375
2024-06-20T17:46:15.751+02:00,4089.694157375,0.33868408203125,1.319320678710938,-1.0364990234375
2024-06-20T17:46:15.761+02:00,4089.704215375,0.3611907958984375,1.311752319335938,-0.9578857421875
2024-06-20T17:46:15.771+02:00,4089.714272375,0.369384765625,1.304763793945312,-0.84619140625
2024-06-20T17:46:15.782+02:00,4089.724330375,0.3561248779296875,1.359664916992188,-0.784027099609375
2024-06-20T17:46:15.792+02:00,4089.734388375,0.32611083984375,1.431106567382812,-0.7611541748046875
2024-06-20T17:46:15.802+02:00,4089.744445375,0.311981201171875,1.457962036132812,-0.81390380859375
2024-06-20T17:46:15.812+02:00,4089.754503375,0.3065948486328125,1.406723022460938,-0.849609375
2024-06-20T17:46:15.822+02:00,4089.764560375,0.2887420654296875,1.256973266601562,-0.9443817138671875
2024-06-20T17:46:15.832+02:00,4089.774618375,0.2742156982421875,1.080596923828125,-0.980865478515625
2024-06-20T17:46:15.842+02:00,4089.784676375,0.250823974609375,0.9523468017578125,-0.9780120849609375
2024-06-20T17:46:15.852+02:00,4089.794733375,0.2378387451171875,0.883331298828125,-0.9426727294921875
2024-06-20T17:46:15.862+02:00,4089.804791375,0.2432708740234375,0.842742919921875,-0.868438720703125
2024-06-20T17:46:15.872+02:00,4089.814848375,0.2435302734375,0.804962158203125,-0.7753143310546875
2024-06-20T17:46:15.882+02:00,4089.824906875,0.210601806640625,0.8116455078125,-0.694976806640625
2024-06-20T17:46:15.892+02:00,4089.834964875,0.15582275390625,0.9203033447265625,-0.6392669677734375
2024-06-20T17:46:15.902+02:00,4089.845021875,0.1155853271484375,1.0311279296875,-0.60980224609375
2024-06-20T17:46:15.912+02:00,4089.855079875,0.0911865234375,1.048919677734375,-0.6545867919921875
2024-06-20T17:46:15.922+02:00,4089.865136875,0.090576171875,0.9507598876953125,-0.7162628173828125
2024-06-20T17:46:15.932+02:00,4089.875194875,0.1024169921875,0.850616455078125,-0.7323760986328125
2024-06-20T17:46:15.943+02:00,4089.885251875,0.0919952392578125,0.7790374755859375,-0.736083984375
2024-06-20T17:46:15.953+02:00,4089.895309875,0.0672760009765625,0.727569580078125,-0.767852783203125
2024-06-20T17:46:15.963+02:00,4089.905367875,0.0629730224609375,0.7104644775390625,-0.7505645751953125
2024-06-20T17:46:15.973+02:00,4089.915424875,0.05914306640625,0.69622802734375,-0.689056396484375
2024-06-20T17:46:15.983+02:00,4089.925482875,0.0399627685546875,0.6761016845703125,-0.6254425048828125
2024-06-20T17:46:15.993+02:00,4089.935539875,0.0233306884765625,0.6626434326171875,-0.531280517578125
2024-06-20T17:46:16.003+02:00,4089.945597875,-0.026397705078125,0.7287445068359375,-0.469940185546875
2024-06-20T17:46:16.013+02:00,4089.955655875,-0.096893310546875,0.839508056640625,-0.549285888671875
2024-06-20T17:46:16.023+02:00,4089.965712875,-0.1093597412109375,0.8852996826171875,-0.6097869873046875
2024-06-20T17:46:16.033+02:00,4089.975770875,-0.123016357421875,0.8896484375,-0.6947479248046875
2024-06-20T17:46:16.043+02:00,4089.985827875,-0.129486083984375,0.8440704345703125,-0.7564544677734375
2024-06-20T17:46:16.055+02:00,4089.995885875,-0.110443115234375,0.761566162109375,-0.7238311767578125
2024-06-20T17:46:16.064+02:00,4090.005943875,-0.103851318359375,0.7077789306640625,-0.6725921630859375
2024-06-20T17:46:16.073+02:00,4090.016000875,-0.1158294677734375,0.7104034423828125,-0.635498046875
2024-06-20T17:46:16.083+02:00,4090.026058875,-0.11627197265625,0.7254486083984375,-0.5950469970703125
2024-06-20T17:46:16.093+02:00,4090.036115875,-0.1212310791015625,0.714630126953125,-0.5354156494140625
2024-06-20T17:46:16.105+02:00,4090.046173875,-0.159912109375,0.7743988037109375,-0.529083251953125
2024-06-20T17:46:16.114+02:00,4090.056230875,-0.1848602294921875,0.8744049072265625,-0.5542755126953125
2024-06-20T17:46:16.123+02:00,4090.066288875,-0.17974853515625,0.9019012451171875,-0.6129302978515625
2024-06-20T17:46:16.134+02:00,4090.076346875,-0.158660888671875,0.8722686767578125,-0.67041015625
2024-06-20T17:46:16.144+02:00,4090.086403875,-0.1370391845703125,0.779693603515625,-0.6906280517578125
2024-06-20T17:46:16.154+02:00,4090.096461875,-0.1268768310546875,0.72332763671875,-0.6594390869140625
2024-06-20T17:46:16.164+02:00,4090.106518875,-0.1363372802734375,0.753631591796875,-0.6208343505859375
2024-06-20T17:46:16.174+02:00,4090.116576875,-0.12274169921875,0.7841033935546875,-0.5362396240234375
2024-06-20T17:46:16.184+02:00,4090.126634875,-0.120391845703125,0.8076171875,-0.478607177734375
2024-06-20T17:46:16.194+02:00,4090.136691875,-0.124359130859375,0.882232666015625,-0.4403839111328125
2024-06-20T17:46:16.204+02:00,4090.146749875,-0.1220855712890625,0.98614501953125,-0.4000091552734375
2024-06-20T17:46:16.214+02:00,4090.156806875,-0.129486083984375,1.056930541992188,-0.4321136474609375
2024-06-20T17:46:16.224+02:00,4090.166864875,-0.09918212890625,1.032379150390625,-0.46026611328125
2024-06-20T17:46:16.234+02:00,4090.176922875,-0.0616455078125,0.9303131103515625,-0.4854736328125
2024-06-20T17:46:16.244+02:00,4090.186979875,-0.0237274169921875,0.8524932861328125,-0.4936981201171875
2024-06-20T17:46:16.254+02:00,4090.197037875,0.001708984375,0.8083953857421875,-0.469451904296875
2024-06-20T17:46:16.264+02:00,4090.207094875,-0.008148193359375,0.8075103759765625,-0.4078216552734375
2024-06-20T17:46:16.274+02:00,4090.217152875,-0.034210205078125,0.82122802734375,-0.31585693359375
2024-06-20T17:46:16.284+02:00,4090.227210875,-0.0540313720703125,0.8416748046875,-0.242340087890625
2024-06-20T17:46:16.295+02:00,4090.237267875,-0.0634613037109375,0.9186553955078125,-0.210601806640625
2024-06-20T17:46:16.305+02:00,4090.247325875,-0.0560760498046875,1.00689697265625,-0.2213287353515625
2024-06-20T17:46:16.315+02:00,4090.257382875,-0.0206298828125,1.026016235351562,-0.2303619384765625
2024-06-20T17:46:16.325+02:00,4090.267440875,0.0191497802734375,1.001907348632812,-0.244659423828125
2024-06-20T17:46:16.335+02:00,4090.277498875,0.03448486328125,0.9895782470703125,-0.2898101806640625
2024-06-20T17:46:16.345+02:00,4090.287555875,0.04718017578125,0.9508819580078125,-0.34588623046875
2024-06-20T17:46:16.355+02:00,4090.297613875,0.088623046875,0.9060516357421875,-0.3123016357421875
2024-06-20T17:46:16.365+02:00,4090.307670875,0.1245574951171875,0.922637939453125,-0.242034912109375
2024-06-20T17:46:16.375+02:00,4090.317728875,0.1413421630859375,0.9872894287109375,-0.1399688720703125
2024-06-20T17:46:16.386+02:00,4090.327786875,0.140716552734375,1.09515380859375,-0.0640869140625
2024-06-20T17:46:16.395+02:00,4090.337843875,0.1253204345703125,1.229888916015625,-0.0450592041015625
2024-06-20T17:46:16.405+02:00,4090.347901875,0.10113525390625,1.308151245117188,-0.04193115234375
2024-06-20T17:46:16.415+02:00,4090.357958875,0.0849456787109375,1.263687133789062,-0.0545654296875
2024-06-20T17:46:16.425+02:00,4090.368016875,0.0914154052734375,1.123977661132812,-0.100799560546875
2024-06-20T17:46:16.435+02:00,4090.378073875,0.1187286376953125,0.9765777587890625,-0.108734130859375
2024-06-20T17:46:16.445+02:00,4090.388131875,0.1181182861328125,0.8735504150390625,-0.1199493408203125
2024-06-20T17:46:16.455+02:00,4090.398189875,0.1037139892578125,0.8276214599609375,-0.11419677734375
2024-06-20T17:46:16.465+02:00,4090.408246875,0.0896453857421875,0.823577880859375,-0.0848388671875
2024-06-20T17:46:16.476+02:00,4090.418304875,0.07537841796875,0.8680419921875,-0.0840911865234375
2024-06-20T17:46:16.486+02:00,4090.428361875,0.0707855224609375,0.94854736328125,-0.076934814453125
2024-06-20T17:46:16.496+02:00,4090.438419875,0.0606231689453125,1.016815185546875,-0.140869140625
2024-06-20T17:46:16.506+02:00,4090.448477875,0.086029052734375,1.002151489257812,-0.2345123291015625
2024-06-20T17:46:16.516+02:00,4090.458534875,0.1432342529296875,0.9892120361328125,-0.2921142578125
2024-06-20T17:46:16.526+02:00,4090.468592875,0.2363433837890625,0.948211669921875,-0.3469390869140625
2024-06-20T17:46:16.536+02:00,4090.478649875,0.306915283203125,0.894317626953125,-0.4018096923828125
2024-06-20T17:46:16.546+02:00,4090.488707875,0.3322906494140625,0.834228515625,-0.452117919921875
2024-06-20T17:46:16.556+02:00,4090.498765875,0.3173370361328125,0.7475128173828125,-0.404632568359375
2024-06-20T17:46:16.566+02:00,4090.508822875,0.228729248046875,0.8494720458984375,-0.32684326171875
2024-06-20T17:46:16.576+02:00,4090.518880875,0.0988616943359375,0.9275054931640625,-0.359039306640625
2024-06-20T17:46:16.586+02:00,4090.528937875,0.0536346435546875,0.9126129150390625,-0.44732666015625
2024-06-20T17:46:16.596+02:00,4090.538995875,0.1089935302734375,0.891815185546875,-0.5392608642578125
2024-06-20T17:46:16.606+02:00,4090.549053875,0.199859619140625,0.8115234375,-0.5906982421875
2024-06-20T17:46:16.616+02:00,4090.559110875,0.262115478515625,0.76239013671875,-0.68023681640625
2024-06-20T17:46:16.626+02:00,4090.569168875,0.2698974609375,0.7445831298828125,-0.7935333251953125
2024-06-20T17:46:16.636+02:00,4090.579225875,0.21429443359375,0.7550506591796875,-0.8762969970703125
2024-06-20T17:46:16.647+02:00,4090.589283875,0.14923095703125,0.8450469970703125,-0.879669189453125
2024-06-20T17:46:16.657+02:00,4090.599340875,0.0866241455078125,0.967041015625,-0.9143524169921875
2024-06-20T17:46:16.667+02:00,4090.609398875,0.048004150390625,1.12005615234375,-0.963653564453125
2024-06-20T17:46:16.677+02:00,4090.619456875,0.0042724609375,1.273406982421875,-0.9690704345703125
2024-06-20T17:46:16.687+02:00,4090.629513875,-0.037353515625,1.253997802734375,-1.075637817382812
2024-06-20T17:46:16.697+02:00,4090.639571875,-0.044464111328125,1.165512084960938,-1.12640380859375
2024-06-20T17:46:16.707+02:00,4090.649628875,-0.0655364990234375,1.0703125,-1.124923706054688
2024-06-20T17:46:16.717+02:00,4090.659686875,-0.109710693359375,0.992462158203125,-1.125015258789062
2024-06-20T17:46:16.727+02:00,4090.669744875,-0.16656494140625,0.9713592529296875,-1.059768676757812
2024-06-20T17:46:16.737+02:00,4090.679801875,-0.234100341796875,1.064254760742188,-0.9211273193359375
2024-06-20T17:46:16.747+02:00,4090.689859875,-0.3133544921875,1.1734619140625,-0.9087066650390625
2024-06-20T17:46:16.757+02:00,4090.699916875,-0.3565521240234375,1.2816162109375,-0.915985107421875
2024-06-20T17:46:16.767+02:00,4090.709974875,-0.3583831787109375,1.348251342773438,-0.9171905517578125
2024-06-20T17:46:16.777+02:00,4090.720032875,-0.306732177734375,1.322540283203125,-0.925048828125
2024-06-20T17:46:16.787+02:00,4090.730089875,-0.27239990234375,1.319671630859375,-0.976226806640625
2024-06-20T17:46:16.797+02:00,4090.740147875,-0.29095458984375,1.298477172851562,-1.204605102539062
2024-06-20T17:46:16.807+02:00,4090.750204875,-0.2857513427734375,1.280853271484375,-1.371414184570312
2024-06-20T17:46:16.817+02:00,4090.760262875,-0.330963134765625,1.353439331054688,-1.425079345703125
2024-06-20T17:46:16.828+02:00,4090.770320875,-0.42950439453125,1.280136108398438,-1.425323486328125
2024-06-20T17:46:16.838+02:00,4090.780377875,-0.51080322265625,1.2239990234375,-1.23944091796875
2024-06-20T17:46:16.848+02:00,4090.790435875,-0.57110595703125,1.243377685546875,-1.089370727539062
