loggingTime(txt),accelerometerTimestamp_sinceReboot(s),accelerometerAccelerationX(G),accelerometerAccelerationY(G),accelerometerAccelerationZ(G)
2024-06-20T17:51:14.279+02:00,4333.334913875,-0.027923583984375,-0.2451171875,-0.954833984375
2024-06-20T17:51:14.280+02:00,4333.344970875,-0.03265380859375,-0.272674560546875,-0.9400634765625
2024-06-20T17:51:14.280+02:00,4333.355028875,-0.037445068359375,-0.259307861328125,-0.943359375
2024-06-20T17:51:14.286+02:00,4333.365085875001,-0.0359649658203125,-0.23388671875,-0.9516143798828125
2024-06-20T17:51:14.289+02:00,4333.375142875,-0.0388641357421875,-0.21636962890625,-0.9636688232421875
2024-06-20T17:51:14.290+02:00,4333.385200875,-0.038360595703125,-0.206298828125,-0.974029541015625
2024-06-20T17:51:14.290+02:00,4333.395257875,-0.03363037109375,-0.2094573974609375,-0.972747802734375
2024-06-20T17:51:14.292+02:00,4333.405315875,-0.0212249755859375,-0.223876953125,-0.969696044921875
2024-06-20T17:51:14.292+02:00,4333.415372875001,-0.0254974365234375,-0.2235870361328125,-0.965606689453125
2024-06-20T17:51:14.292+02:00,4333.425430875001,-0.042266845703125,-0.2039642333984375,-0.96099853515625
2024-06-20T17:51:14.293+02:00,4333.435487875,-0.0514373779296875,-0.214324951171875,-0.9565887451171875
2024-06-20T17:51:14.293+02:00,4333.445545875,-0.043609619140625,-0.23883056640625,-0.9507904052734375
2024-06-20T17:51:14.293+02:00,4333.455602875,-0.035430908203125,-0.2588348388671875,-0.9461822509765625
2024-06-20T17:51:14.293+02:00,4333.465660875,-0.0177459716796875,-0.27301025390625,-0.938934326171875
2024-06-20T17:51:14.293+02:00,4333.475717875001,-0.034149169921875,-0.2625579833984375,-0.9400177001953125
2024-06-20T17:51:14.294+02:00,4333.485774875,-0.05120849609375,-0.246337890625,-0.9491119384765625
2024-06-20T17:51:14.294+02:00,4333.495832875,-0.0478363037109375,-0.2426910400390625,-0.9506378173828125
2024-06-20T17:51:14.294+02:00,4333.505889875,-0.0518646240234375,-0.2205352783203125,-0.94976806640625
2024-06-20T17:51:14.295+02:00,4333.515947875,-0.053497314453125,-0.2068328857421875,-0.949066162109375
2024-06-20T17:51:14.295+02:00,4333.526004875001,-0.045074462890625,-0.21356201171875,-0.9552154541015625
2024-06-20T17:51:14.295+02:00,4333.536062875,-0.0411376953125,-0.226104736328125,-0.9610595703125
2024-06-20T17:51:14.295+02:00,4333.546119875,-0.040435791015625,-0.22735595703125,-0.97259521484375
2024-06-20T17:51:14.295+02:00,4333.556177875001,-0.0324554443359375,-0.220794677734375,-0.974884033203125
2024-06-20T17:51:14.296+02:00,4333.566234875,-0.0288238525390625,-0.243499755859375,-0.9659576416015625
2024-06-20T17:51:14.296+02:00,4333.576291875001,-0.020843505859375,-0.2537078857421875,-0.9554901123046875
2024-06-20T17:51:14.296+02:00,4333.586349875,-0.037109375,-0.2529144287109375,-0.95526123046875
2024-06-20T17:51:14.296+02:00,4333.596406875,-0.04986572265625,-0.2389373779296875,-0.9530029296875
2024-06-20T17:51:14.297+02:00,4333.606464875001,-0.0478973388671875,-0.2315673828125,-0.9512786865234375
2024-06-20T17:51:14.297+02:00,4333.616521875,-0.036224365234375,-0.2364349365234375,-0.9545745849609375
2024-06-20T17:51:14.297+02:00,4333.626579875,-0.03839111328125,-0.22869873046875,-0.97003173828125
2024-06-20T17:51:14.297+02:00,4333.636636875,-0.03082275390625,-0.208984375,-0.9843902587890625
2024-06-20T17:51:14.297+02:00,4333.646694875,-0.0317230224609375,-0.2038726806640625,-0.9882354736328125
2024-06-20T17:51:14.298+02:00,4333.656751875,-0.04888916015625,-0.219451904296875,-0.9783782958984375
2024-06-20T17:51:14.298+02:00,4333.666809875001,-0.055694580078125,-0.2303314208984375,-0.963165283203125
2024-06-20T17:51:14.298+02:00,4333.676866875,-0.0504302978515625,-0.2298736572265625,-0.9583740234375
2024-06-20T17:51:14.298+02:00,4333.686923875001,-0.0372161865234375,-0.240447998046875,-0.9552764892578125
2024-06-20T17:51:14.299+02:00,4333.696981875,-0.028900146484375,-0.264007568359375,-0.9485321044921875
2024-06-20T17:51:14.299+02:00,4333.707038875,-0.0240631103515625,-0.27685546875,-0.946929931640625
2024-06-20T17:51:14.299+02:00,4333.717096875001,-0.0350341796875,-0.2756500244140625,-0.9449005126953125
2024-06-20T17:51:14.299+02:00,4333.727153875,-0.050537109375,-0.24920654296875,-0.953369140625
2024-06-20T17:51:14.299+02:00,4333.737211875,-0.0475311279296875,-0.2489013671875,-0.9567718505859375
2024-06-20T17:51:14.300+02:00,4333.747268875,-0.04345703125,-0.2490081787109375,-0.950897216796875
2024-06-20T17:51:14.300+02:00,4333.757326875,-0.0364990234375,-0.2439117431640625,-0.949981689453125
2024-06-20T17:51:14.300+02:00,4333.767383875001,-0.0423736572265625,-0.2368621826171875,-0.9526214599609375
2024-06-20T17:51:14.300+02:00,4333.777440875,-0.0560455322265625,-0.2226104736328125,-0.95574951171875
2024-06-20T17:51:14.301+02:00,4333.787498875,-0.060211181640625,-0.2264404296875,-0.9481964111328125
2024-06-20T17:51:14.301+02:00,4333.797555875,-0.0467071533203125,-0.2329864501953125,-0.9461822509765625
2024-06-20T17:51:14.301+02:00,4333.807613875,-0.036041259765625,-0.2296905517578125,-0.94915771484375
2024-06-20T17:51:14.301+02:00,4333.817670875001,-0.03289794921875,-0.2392425537109375,-0.9526214599609375
2024-06-20T17:51:14.301+02:00,4333.827728875001,-0.0272216796875,-0.2543487548828125,-0.9608917236328125
2024-06-20T17:51:14.302+02:00,4333.837785875,-0.030609130859375,-0.2433929443359375,-0.9686126708984375
2024-06-20T17:51:14.302+02:00,4333.847843875,-0.0472412109375,-0.2277374267578125,-0.9698333740234375
2024-06-20T17:51:14.302+02:00,4333.857900875,-0.0523834228515625,-0.2316741943359375,-0.9623870849609375
2024-06-20T17:51:14.302+02:00,4333.867958875,-0.0448455810546875,-0.2305908203125,-0.956512451171875
2024-06-20T17:51:14.302+02:00,4333.878015875001,-0.0460662841796875,-0.21630859375,-0.9523468017578125
2024-06-20T17:51:14.303+02:00,4333.888072875,-0.054351806640625,-0.21942138671875,-0.955810546875
2024-06-20T17:51:14.303+02:00,4333.898130875,-0.056488037109375,-0.2191619873046875,-0.9615325927734375
2024-06-20T17:51:14.303+02:00,4333.908187875,-0.0559539794921875,-0.22509765625,-0.9753265380859375
2024-06-20T17:51:14.303+02:00,4333.918245875,-0.04803466796875,-0.2288970947265625,-0.9791107177734375
2024-06-20T17:51:14.304+02:00,4333.928302875001,-0.048065185546875,-0.229766845703125,-0.971160888671875
2024-06-20T17:51:14.304+02:00,4333.938360875,-0.0492706298828125,-0.225982666015625,-0.9667205810546875
2024-06-20T17:51:14.304+02:00,4333.948417875,-0.05108642578125,-0.2346649169921875,-0.9636993408203125
2024-06-20T17:51:14.304+02:00,4333.958475875001,-0.048675537109375,-0.240234375,-0.9681396484375
2024-06-20T17:51:14.304+02:00,4333.968532875,-0.045623779296875,-0.2425384521484375,-0.9652252197265625
2024-06-20T17:51:14.305+02:00,4333.978590875,-0.0417327880859375,-0.244384765625,-0.9613800048828125
2024-06-20T17:51:14.305+02:00,4333.988647875,-0.0478057861328125,-0.2410125732421875,-0.9634246826171875
2024-06-20T17:51:14.305+02:00,4333.998704875,-0.056640625,-0.2315826416015625,-0.9638671875
2024-06-20T17:51:14.305+02:00,4334.008762875001,-0.044586181640625,-0.2444915771484375,-0.9645233154296875
2024-06-20T17:51:14.306+02:00,4334.018819875,-0.0420989990234375,-0.24700927734375,-0.958343505859375
2024-06-20T17:51:14.306+02:00,4334.028877875,-0.045989990234375,-0.237335205078125,-0.9545745849609375
2024-06-20T17:51:14.306+02:00,4334.038934875,-0.0500335693359375,-0.2373199462890625,-0.953948974609375
2024-06-20T17:51:14.306+02:00,4334.048992875,-0.0514068603515625,-0.241363525390625,-0.95343017578125
2024-06-20T17:51:14.306+02:00,4334.059049875001,-0.0533599853515625,-0.2419891357421875,-0.9535980224609375
2024-06-20T17:51:14.307+02:00,4334.069107875001,-0.05389404296875,-0.2358551025390625,-0.949554443359375
2024-06-20T17:51:14.307+02:00,4334.079164875,-0.0563507080078125,-0.231201171875,-0.94830322265625
2024-06-20T17:51:14.307+02:00,4334.089223,-0.048583984375,-0.232666015625,-0.948699951171875
2024-06-20T17:51:14.307+02:00,4334.099281000001,-0.0522003173828125,-0.2297515869140625,-0.9523468017578125
2024-06-20T17:51:14.307+02:00,4334.109338,-0.0535125732421875,-0.22210693359375,-0.9618682861328125
2024-06-20T17:51:14.308+02:00,4334.119396,-0.0458984375,-0.2220001220703125,-0.974700927734375
2024-06-20T17:51:14.308+02:00,4334.129453,-0.04736328125,-0.22247314453125,-0.9768829345703125
2024-06-20T17:51:14.308+02:00,4334.139511,-0.045745849609375,-0.2177581787109375,-0.976593017578125
2024-06-20T17:51:14.308+02:00,4334.149568,-0.0517730712890625,-0.212005615234375,-0.9759521484375
2024-06-20T17:51:14.309+02:00,4334.159626000001,-0.050140380859375,-0.2111053466796875,-0.975341796875
2024-06-20T17:51:14.309+02:00,4334.169683,-0.052581787109375,-0.213226318359375,-0.9657745361328125
2024-06-20T17:51:14.309+02:00,4334.179741,-0.0589447021484375,-0.212493896484375,-0.972747802734375
2024-06-20T17:51:14.309+02:00,4334.189798,-0.0568084716796875,-0.2145538330078125,-0.9750518798828125
2024-06-20T17:51:14.309+02:00,4334.199855,-0.054229736328125,-0.21942138671875,-0.97589111328125
2024-06-20T17:51:14.310+02:00,4334.209913000001,-0.0455169677734375,-0.2303009033203125,-0.9700164794921875
2024-06-20T17:51:14.310+02:00,4334.21997,-0.0466156005859375,-0.22186279296875,-0.9715423583984375
2024-06-20T17:51:14.310+02:00,4334.230028,-0.0517120361328125,-0.2225341796875,-0.9770050048828125
2024-06-20T17:51:14.310+02:00,4334.240085,-0.05560302734375,-0.2172698974609375,-0.974884033203125
2024-06-20T17:51:14.311+02:00,4334.250143,-0.0529327392578125,-0.2190704345703125,-0.9669342041015625
2024-06-20T17:51:14.311+02:00,4334.260200000001,-0.04803466796875,-0.2186431884765625,-0.9609527587890625
2024-06-20T17:51:14.311+02:00,4334.270258,-0.0528564453125,-0.2241973876953125,-0.9486846923828125
2024-06-20T17:51:14.311+02:00,4334.280315,-0.0516815185546875,-0.2359619140625,-0.93585205078125
2024-06-20T17:51:14.311+02:00,4334.290373,-0.033966064453125,-0.241790771484375,-0.934112548828125
2024-06-20T17:51:14.312+02:00,4334.30043,-0.02777099609375,-0.2484130859375,-0.939605712890625
2024-06-20T17:51:14.312+02:00,4334.310487000001,-0.0266571044921875,-0.24859619140625,-0.9490814208984375
2024-06-20T17:51:14.312+02:00,4334.320545,-0.0376739501953125,-0.241058349609375,-0.9508209228515625
2024-06-20T17:51:14.312+02:00,4334.330602,-0.0413360595703125,-0.237335205078125,-0.9557647705078125
2024-06-20T17:51:14.313+02:00,4334.34066,-0.03997802734375,-0.24456787109375,-0.953125
2024-06-20T17:51:14.313+02:00,4334.350717,-0.0579833984375,-0.237701416015625,-0.9452056884765625
2024-06-20T17:51:14.313+02:00,4334.360775,-0.069915771484375,-0.2323760986328125,-0.9403839111328125
2024-06-20T17:51:14.313+02:00,4334.370832000001,-0.0673828125,-0.22869873046875,-0.9307861328125
2024-06-20T17:51:14.314+02:00,4334.38089,-0.0509490966796875,-0.22650146484375,-0.936004638671875
2024-06-20T17:51:14.314+02:00,4334.390947,-0.0559234619140625,-0.22003173828125,-0.945343017578125
2024-06-20T17:51:14.314+02:00,4334.401005000001,-0.0673828125,-0.215484619140625,-0.9571075439453125
2024-06-20T17:51:14.314+02:00,4334.411062,-0.1752166748046875,-0.1427459716796875,-0.91064453125
2024-06-20T17:51:14.314+02:00,4334.421119000001,0.054901123046875,-0.198944091796875,-0.9927520751953125
2024-06-20T17:51:14.315+02:00,4334.431177,-0.0036468505859375,-0.2584228515625,-0.950408935546875
2024-06-20T17:51:14.315+02:00,4334.441234,-0.022369384765625,-0.254791259765625,-0.9973297119140625
2024-06-20T17:51:14.315+02:00,4334.451292000001,-0.041290283203125,-0.2408905029296875,-1.031845092773438
2024-06-20T17:51:14.315+02:00,4334.461349,-0.042999267578125,-0.2306671142578125,-1.023681640625
2024-06-20T17:51:14.316+02:00,4334.471407,-0.0706634521484375,-0.2194671630859375,-1.015823364257812
2024-06-20T17:51:14.316+02:00,4334.481464,-0.1567535400390625,-0.1241302490234375,-0.9705352783203125
2024-06-20T17:51:14.316+02:00,4334.491522,-0.096527099609375,-0.1587677001953125,-0.9799346923828125
2024-06-20T17:51:14.316+02:00,4334.501579000001,-0.103271484375,-0.264007568359375,-0.9084930419921875
2024-06-20T17:51:14.316+02:00,4334.511637000001,-0.045013427734375,-0.2725372314453125,-0.874298095703125
2024-06-20T17:51:14.317+02:00,4334.521694,-0.002899169921875,-0.27520751953125,-0.8984832763671875
2024-06-20T17:51:14.317+02:00,4334.531751,-0.04345703125,-0.263641357421875,-0.9516448974609375
2024-06-20T17:51:14.317+02:00,4334.541809,-0.0488739013671875,-0.2640380859375,-0.98150634765625
2024-06-20T17:51:14.317+02:00,4334.551866000001,-0.0521240234375,-0.2633056640625,-0.9932403564453125
2024-06-20T17:51:14.318+02:00,4334.561924000001,-0.0618438720703125,-0.2440185546875,-0.99163818359375
2024-06-20T17:51:14.328+02:00,4334.571981,-0.06561279296875,-0.2472076416015625,-0.98284912109375
2024-06-20T17:51:14.338+02:00,4334.582039,-0.056732177734375,-0.271881103515625,-0.9630584716796875
2024-06-20T17:51:14.348+02:00,4334.592096,-0.0502777099609375,-0.272216796875,-0.9472503662109375
2024-06-20T17:51:14.358+02:00,4334.602154,-0.0559539794921875,-0.26202392578125,-0.935089111328125
2024-06-20T17:51:14.368+02:00,4334.612211000001,-0.0532379150390625,-0.258758544921875,-0.9217071533203125
2024-06-20T17:51:14.378+02:00,4334.622269,-0.047454833984375,-0.25958251953125,-0.9210052490234375
2024-06-20T17:51:14.388+02:00,4334.632326,-0.0460052490234375,-0.2591705322265625,-0.919342041015625
2024-06-20T17:51:14.398+02:00,4334.642383,-0.052978515625,-0.248779296875,-0.938201904296875
2024-06-20T17:51:14.408+02:00,4334.652441,-0.0620269775390625,-0.215545654296875,-0.969696044921875
2024-06-20T17:51:14.418+02:00,4334.662498000001,-0.057342529296875,-0.2096710205078125,-0.9869384765625
2024-06-20T17:51:14.428+02:00,4334.672556,-0.0711212158203125,-0.22161865234375,-0.999267578125
2024-06-20T17:51:14.438+02:00,4334.682613,-0.0643157958984375,-0.221221923828125,-0.9925384521484375
2024-06-20T17:51:14.449+02:00,4334.692671000001,-0.052001953125,-0.2471923828125,-0.9801177978515625
2024-06-20T17:51:14.459+02:00,4334.702728,-0.0472564697265625,-0.2612762451171875,-0.9668426513671875
2024-06-20T17:51:14.469+02:00,4334.712786,-0.063446044921875,-0.25262451171875,-0.957855224609375
2024-06-20T17:51:14.479+02:00,4334.722843,-0.0714874267578125,-0.242584228515625,-0.9506683349609375
2024-06-20T17:51:14.489+02:00,4334.732901,-0.06243896484375,-0.24932861328125,-0.9398956298828125
2024-06-20T17:51:14.499+02:00,4334.742958,-0.0631256103515625,-0.2567596435546875,-0.9336395263671875
2024-06-20T17:51:14.509+02:00,4334.753015,-0.0590972900390625,-0.2473907470703125,-0.9359130859375
2024-06-20T17:51:14.519+02:00,4334.763073,-0.052032470703125,-0.2474822998046875,-0.9459991455078125
2024-06-20T17:51:14.529+02:00,4334.77313,-0.0418853759765625,-0.26007080078125,-0.951904296875
2024-06-20T17:51:14.539+02:00,4334.783188,-0.038848876953125,-0.2634735107421875,-0.954559326171875
2024-06-20T17:51:14.549+02:00,4334.793245,-0.038665771484375,-0.2603607177734375,-0.9578857421875
2024-06-20T17:51:14.559+02:00,4334.803303000001,-0.051025390625,-0.25531005859375,-0.961578369140625
2024-06-20T17:51:14.569+02:00,4334.81336,-0.061920166015625,-0.2549896240234375,-0.9642333984375
2024-06-20T17:51:14.579+02:00,4334.823418,-0.049835205078125,-0.25140380859375,-0.9548187255859375
2024-06-20T17:51:14.589+02:00,4334.833475,-0.0423583984375,-0.249359130859375,-0.9393463134765625
2024-06-20T17:51:14.599+02:00,4334.843532,-0.0513153076171875,-0.2498626708984375,-0.9249725341796875
2024-06-20T17:51:14.610+02:00,4334.853590000001,-0.0611572265625,-0.2495269775390625,-0.9307098388671875
2024-06-20T17:51:14.620+02:00,4334.863647,-0.061065673828125,-0.246337890625,-0.9415283203125
2024-06-20T17:51:14.630+02:00,4334.873705,-0.054046630859375,-0.25146484375,-0.9425201416015625
2024-06-20T17:51:14.640+02:00,4334.883762,-0.0484771728515625,-0.2531280517578125,-0.943939208984375
2024-06-20T17:51:14.650+02:00,4334.89382,-0.04315185546875,-0.260406494140625,-0.954742431640625
2024-06-20T17:51:14.660+02:00,4334.903877000001,-0.0491943359375,-0.2686767578125,-0.962432861328125
2024-06-20T17:51:14.670+02:00,4334.913935,-0.0525360107421875,-0.25311279296875,-0.9673309326171875
2024-06-20T17:51:14.680+02:00,4334.923992,-0.0568695068359375,-0.249053955078125,-0.9632415771484375
2024-06-20T17:51:14.690+02:00,4334.93405,-0.053253173828125,-0.252166748046875,-0.9585113525390625
2024-06-20T17:51:14.700+02:00,4334.944107,-0.0544586181640625,-0.25213623046875,-0.9532012939453125
2024-06-20T17:51:14.710+02:00,4334.954165,-0.06134033203125,-0.252716064453125,-0.942230224609375
2024-06-20T17:51:14.720+02:00,4334.964222000001,-0.0606231689453125,-0.2615509033203125,-0.936187744140625
2024-06-20T17:51:14.730+02:00,4334.974279,-0.049285888671875,-0.262481689453125,-0.9366912841796875
2024-06-20T17:51:14.740+02:00,4334.984337,-0.0487213134765625,-0.264556884765625,-0.94378662109375
2024-06-20T17:51:14.751+02:00,4334.994394,-0.0373077392578125,-0.2745819091796875,-0.9482421875
2024-06-20T17:51:14.761+02:00,4335.004452,-0.0381011962890625,-0.275146484375,-0.9556121826171875
2024-06-20T17:51:14.771+02:00,4335.014509000001,-0.0381317138671875,-0.27008056640625,-0.9594879150390625
2024-06-20T17:51:14.783+02:00,4335.024567,-0.0390625,-0.269287109375,-0.95947265625
2024-06-20T17:51:14.802+02:00,4335.034624,-0.04583740234375,-0.2706451416015625,-0.953216552734375
2024-06-20T17:51:14.803+02:00,4335.044682000001,-0.0453338623046875,-0.2612152099609375,-0.94610595703125
2024-06-20T17:51:14.811+02:00,4335.054739,-0.0381011962890625,-0.2429046630859375,-0.950042724609375
2024-06-20T17:51:14.821+02:00,4335.064797,-0.042999267578125,-0.2376556396484375,-0.9605865478515625
2024-06-20T17:51:14.831+02:00,4335.074854,-0.0484466552734375,-0.2453765869140625,-0.969573974609375
2024-06-20T17:51:14.841+02:00,4335.08491125,-0.0432586669921875,-0.2412109375,-0.9764404296875
2024-06-20T17:51:14.851+02:00,4335.09496925,-0.03173828125,-0.2465057373046875,-0.9631195068359375
2024-06-20T17:51:14.861+02:00,4335.10502625,-0.032135009765625,-0.2531890869140625,-0.9466705322265625
2024-06-20T17:51:14.871+02:00,4335.11508425,-0.040740966796875,-0.2501068115234375,-0.9468231201171875
2024-06-20T17:51:14.881+02:00,4335.125141250001,-0.0456695556640625,-0.2548370361328125,-0.94549560546875
2024-06-20T17:51:14.891+02:00,4335.13519925,-0.053253173828125,-0.2551116943359375,-0.9407958984375
2024-06-20T17:51:14.901+02:00,4335.14525625,-0.046966552734375,-0.247894287109375,-0.946319580078125
2024-06-20T17:51:14.912+02:00,4335.155314250001,-0.0358123779296875,-0.2450103759765625,-0.9499664306640625
2024-06-20T17:51:14.922+02:00,4335.16537125,-0.0390625,-0.2454071044921875,-0.950775146484375
2024-06-20T17:51:14.932+02:00,4335.17542925,-0.0388031005859375,-0.2401275634765625,-0.952239990234375
2024-06-20T17:51:14.941+02:00,4335.18548625,-0.046539306640625,-0.2590179443359375,-0.9388275146484375
2024-06-20T17:51:14.952+02:00,4335.19554425,-0.04766845703125,-0.261383056640625,-0.9434051513671875
2024-06-20T17:51:14.962+02:00,4335.205601250001,-0.0451507568359375,-0.242919921875,-0.9488677978515625
2024-06-20T17:51:14.972+02:00,4335.21565825,-0.0532989501953125,-0.2382354736328125,-0.9501495361328125
2024-06-20T17:51:14.982+02:00,4335.22571625,-0.047821044921875,-0.2497100830078125,-0.94097900390625
2024-06-20T17:51:14.992+02:00,4335.23577325,-0.0284423828125,-0.250885009765625,-0.9376220703125
2024-06-20T17:51:15.002+02:00,4335.24583125,-0.03240966796875,-0.23931884765625,-0.9492034912109375
2024-06-20T17:51:15.012+02:00,4335.255888250001,-0.03125,-0.2505645751953125,-0.949493408203125
2024-06-20T17:51:15.022+02:00,4335.265946250001,-0.0343170166015625,-0.2420196533203125,-0.9530181884765625
2024-06-20T17:51:15.032+02:00,4335.27600325,-0.03857421875,-0.2301483154296875,-0.964263916015625
2024-06-20T17:51:15.042+02:00,4335.28606125,-0.0438232421875,-0.2320709228515625,-0.9736175537109375
2024-06-20T17:51:15.052+02:00,4335.29611825,-0.0561676025390625,-0.223419189453125,-0.9733428955078125
2024-06-20T17:51:15.062+02:00,4335.30617625,-0.050506591796875,-0.23272705078125,-0.96099853515625
2024-06-20T17:51:15.072+02:00,4335.316233250001,-0.0276641845703125,-0.24951171875,-0.948638916015625
2024-06-20T17:51:15.082+02:00,4335.32629025,-0.0273590087890625,-0.249359130859375,-0.9398040771484375
2024-06-20T17:51:15.093+02:00,4335.33634825,-0.044647216796875,-0.23846435546875,-0.9445343017578125
2024-06-20T17:51:15.103+02:00,4335.34640525,-0.050201416015625,-0.2216949462890625,-0.9545745849609375
2024-06-20T17:51:15.113+02:00,4335.35646325,-0.0489501953125,-0.222900390625,-0.957733154296875
2024-06-20T17:51:15.123+02:00,4335.366520250001,-0.0479583740234375,-0.221649169921875,-0.9681243896484375
2024-06-20T17:51:15.133+02:00,4335.37657825,-0.04107666015625,-0.2241668701171875,-0.9747772216796875
2024-06-20T17:51:15.143+02:00,4335.38663525,-0.0316009521484375,-0.22833251953125,-0.9744415283203125
2024-06-20T17:51:15.153+02:00,4335.396693250001,-0.0287322998046875,-0.2354583740234375,-0.970489501953125
2024-06-20T17:51:15.163+02:00,4335.40675025,-0.023223876953125,-0.250518798828125,-0.96636962890625
2024-06-20T17:51:15.173+02:00,4335.41680825,-0.0300750732421875,-0.2335662841796875,-0.961700439453125
2024-06-20T17:51:15.184+02:00,4335.42686525,-0.0390167236328125,-0.2242889404296875,-0.9545135498046875
2024-06-20T17:51:15.193+02:00,4335.43692225,-0.0395965576171875,-0.229583740234375,-0.9493408203125
2024-06-20T17:51:15.203+02:00,4335.446980250001,-0.0405426025390625,-0.2309417724609375,-0.950592041015625
2024-06-20T17:51:15.214+02:00,4335.45703725,-0.0353240966796875,-0.2271575927734375,-0.9549560546875
2024-06-20T17:51:15.224+02:00,4335.46709525,-0.031829833984375,-0.2303466796875,-0.9632568359375
2024-06-20T17:51:15.233+02:00,4335.47715225,-0.037139892578125,-0.2255706787109375,-0.9685211181640625
2024-06-20T17:51:15.243+02:00,4335.48721025,-0.0412750244140625,-0.2115936279296875,-0.9718475341796875
2024-06-20T17:51:15.253+02:00,4335.49726725,-0.036529541015625,-0.217376708984375,-0.970245361328125
2024-06-20T17:51:15.263+02:00,4335.507325250001,-0.0274658203125,-0.2253875732421875,-0.96453857421875
2024-06-20T17:51:15.273+02:00,4335.51738225,-0.030029296875,-0.2328948974609375,-0.9573211669921875
2024-06-20T17:51:15.284+02:00,4335.52744025,-0.031524658203125,-0.2427520751953125,-0.960357666015625
2024-06-20T17:51:15.294+02:00,4335.53749725,-0.0265960693359375,-0.237457275390625,-0.9589080810546875
2024-06-20T17:51:15.304+02:00,4335.54755525,-0.023162841796875,-0.228271484375,-0.9599151611328125
2024-06-20T17:51:15.314+02:00,4335.557612250001,-0.0305328369140625,-0.23394775390625,-0.961212158203125
2024-06-20T17:51:15.324+02:00,4335.56766925,-0.025604248046875,-0.2225341796875,-0.96514892578125
2024-06-20T17:51:15.334+02:00,4335.57772725,-0.0342254638671875,-0.2113494873046875,-0.963226318359375
2024-06-20T17:51:15.344+02:00,4335.58778425,-0.041748046875,-0.2093963623046875,-0.96490478515625
2024-06-20T17:51:15.354+02:00,4335.59784225,-0.0432586669921875,-0.1971435546875,-0.965179443359375
2024-06-20T17:51:15.364+02:00,4335.607899250001,-0.0514678955078125,-0.1886138916015625,-0.968353271484375
2024-06-20T17:51:15.374+02:00,4335.61795725,-0.0529937744140625,-0.190277099609375,-0.964813232421875
2024-06-20T17:51:15.384+02:00,4335.62801425,-0.0453643798828125,-0.1976318359375,-0.9649810791015625
2024-06-20T17:51:15.395+02:00,4335.63807225,-0.0406341552734375,-0.202972412109375,-0.961578369140625
2024-06-20T17:51:15.404+02:00,4335.64812925,-0.04193115234375,-0.2125396728515625,-0.962005615234375
2024-06-20T17:51:15.414+02:00,4335.65818725,-0.0424652099609375,-0.21533203125,-0.96112060546875
2024-06-20T17:51:15.424+02:00,4335.66824425,-0.0312957763671875,-0.21014404296875,-0.956268310546875
2024-06-20T17:51:15.435+02:00,4335.67830125,-0.0315093994140625,-0.211639404296875,-0.952056884765625
2024-06-20T17:51:15.444+02:00,4335.68835925,-0.032928466796875,-0.213897705078125,-0.9496002197265625
2024-06-20T17:51:15.463+02:00,4335.69841625,-0.0289154052734375,-0.2095184326171875,-0.9553680419921875
2024-06-20T17:51:15.464+02:00,4335.70847425,-0.0323944091796875,-0.2046356201171875,-0.96868896484375
2024-06-20T17:51:15.474+02:00,4335.718531250001,-0.0370025634765625,-0.193389892578125,-0.97320556640625
2024-06-20T17:51:15.485+02:00,4335.72858925,-0.0449066162109375,-0.188934326171875,-0.96807861328125
2024-06-20T17:51:15.495+02:00,4335.73864625,-0.0477294921875,-0.181884765625,-0.96722412109375
2024-06-20T17:51:15.505+02:00,4335.748704250001,-0.0466461181640625,-0.1838836669921875,-0.9710693359375
2024-06-20T17:51:15.515+02:00,4335.75876125,-0.05181884765625,-0.18988037109375,-0.968017578125
2024-06-20T17:51:15.525+02:00,4335.76881925,-0.0595550537109375,-0.1904754638671875,-0.9662322998046875
2024-06-20T17:51:15.535+02:00,4335.77887625,-0.0697174072265625,-0.20159912109375,-0.9658966064453125
2024-06-20T17:51:15.545+02:00,4335.78893425,-0.060882568359375,-0.212677001953125,-0.9716644287109375
2024-06-20T17:51:15.555+02:00,4335.798991250001,-0.0242767333984375,-0.1911773681640625,-0.987152099609375
2024-06-20T17:51:15.565+02:00,4335.80904825,-0.019439697265625,-0.1739349365234375,-0.994781494140625
2024-06-20T17:51:15.575+02:00,4335.81910625,-0.0410003662109375,-0.174835205078125,-0.990325927734375
2024-06-20T17:51:15.585+02:00,4335.82916325,-0.0483856201171875,-0.1747283935546875,-0.9832611083984375
2024-06-20T17:51:15.595+02:00,4335.83922125,-0.0372772216796875,-0.1515960693359375,-0.98651123046875
2024-06-20T17:51:15.605+02:00,4335.849278250001,-0.021575927734375,-0.1424407958984375,-0.9885101318359375
2024-06-20T17:51:15.615+02:00,4335.859336250001,-0.0185546875,-0.139129638671875,-0.994415283203125
2024-06-20T17:51:15.626+02:00,4335.86939325,-0.0129241943359375,-0.13983154296875,-1.000091552734375
2024-06-20T17:51:15.636+02:00,4335.87945125,-0.0149993896484375,-0.150421142578125,-0.991973876953125
2024-06-20T17:51:15.646+02:00,4335.88950825,-0.0224761962890625,-0.1605377197265625,-0.9892578125
2024-06-20T17:51:15.656+02:00,4335.89956625,-0.0210113525390625,-0.166168212890625,-0.9906005859375
2024-06-20T17:51:15.666+02:00,4335.909623250001,-0.021514892578125,-0.16717529296875,-0.9898681640625
2024-06-20T17:51:15.676+02:00,4335.91968025,-0.0221405029296875,-0.16754150390625,-0.9871368408203125
2024-06-20T17:51:15.686+02:00,4335.92973825,-0.019805908203125,-0.1614837646484375,-0.987457275390625
2024-06-20T17:51:15.696+02:00,4335.93979525,-0.0172882080078125,-0.1576385498046875,-0.9811553955078125
2024-06-20T17:51:15.706+02:00,4335.94985325,-0.0172119140625,-0.1556549072265625,-0.977142333984375
2024-06-20T17:51:15.716+02:00,4335.959910250001,-0.0153350830078125,-0.1594696044921875,-0.9781646728515625
2024-06-20T17:51:15.726+02:00,4335.96996825,-0.0157623291015625,-0.1621551513671875,-0.97247314453125
2024-06-20T17:51:15.736+02:00,4335.98002525,-0.02325439453125,-0.1613311767578125,-0.9731292724609375
2024-06-20T17:51:15.746+02:00,4335.990083250001,-0.0210113525390625,-0.161651611328125,-0.975250244140625
2024-06-20T17:51:15.756+02:00,4336.00014025,-0.019317626953125,-0.158660888671875,-0.9792022705078125
2024-06-20T17:51:15.767+02:00,4336.01019825,-0.01617431640625,-0.153839111328125,-0.985565185546875
2024-06-20T17:51:15.781+02:00,4336.02025525,-0.016754150390625,-0.147979736328125,-0.9902191162109375
2024-06-20T17:51:15.790+02:00,4336.03031325,-0.0217437744140625,-0.144287109375,-0.9839630126953125
2024-06-20T17:51:15.797+02:00,4336.040370250001,-0.03289794921875,-0.1460113525390625,-0.9790191650390625
2024-06-20T17:51:15.807+02:00,4336.05042725,-0.0446319580078125,-0.1534271240234375,-0.973876953125
2024-06-20T17:51:15.817+02:00,4336.06048525,-0.0503082275390625,-0.1592254638671875,-0.9625396728515625
2024-06-20T17:51:15.827+02:00,4336.07054225,-0.0613555908203125,-0.16485595703125,-0.949737548828125
2024-06-20T17:51:15.837+02:00,4336.08060025,-0.1065521240234375,-0.196624755859375,-0.9456787109375
2024-06-20T17:51:15.847+02:00,4336.09065725,-0.137359619140625,-0.2993316650390625,-0.9271240234375
2024-06-20T17:51:15.857+02:00,4336.100715250001,-0.1260833740234375,-0.2588043212890625,-0.9594268798828125
2024-06-20T17:51:15.867+02:00,4336.11077225,-0.0772552490234375,-0.17791748046875,-0.9639129638671875
2024-06-20T17:51:15.877+02:00,4336.12083025,-0.05303955078125,-0.1425323486328125,-0.920928955078125
2024-06-20T17:51:15.887+02:00,4336.13088725,-0.0643157958984375,-0.164642333984375,-0.8686370849609375
2024-06-20T17:51:15.897+02:00,4336.14094525,-0.0907135009765625,-0.2067108154296875,-0.8109588623046875
2024-06-20T17:51:15.907+02:00,4336.151002250001,-0.1076507568359375,-0.2142791748046875,-0.7600250244140625
2024-06-20T17:51:15.917+02:00,4336.16105925,-0.100982666015625,-0.1807708740234375,-0.706268310546875
2024-06-20T17:51:15.927+02:00,4336.17111725,-0.0795135498046875,-0.140594482421875,-0.666656494140625
2024-06-20T17:51:15.937+02:00,4336.18117425,-0.049072265625,-0.1102752685546875,-0.63427734375
2024-06-20T17:51:15.947+02:00,4336.19123225,-0.01123046875,-0.0994873046875,-0.589447021484375
2024-06-20T17:51:15.957+02:00,4336.201289250001,0.0097198486328125,-0.1047210693359375,-0.5365142822265625
2024-06-20T17:51:15.968+02:00,4336.21134725,0.0242156982421875,-0.1172027587890625,-0.479278564453125
2024-06-20T17:51:15.978+02:00,4336.22140425,0.03173828125,-0.1151885986328125,-0.435546875
2024-06-20T17:51:15.988+02:00,4336.23146225,0.0352935791015625,-0.0965118408203125,-0.404632568359375
2024-06-20T17:51:15.998+02:00,4336.24151925,0.0406951904296875,-0.06298828125,-0.3646240234375
2024-06-20T17:51:16.008+02:00,4336.25157725,0.0388336181640625,-0.0067138671875,-0.35614013671875
2024-06-20T17:51:16.018+02:00,4336.26163425,0.0148468017578125,0.0806427001953125,-0.35003662109375
2024-06-20T17:51:16.028+02:00,4336.27169225,-0.0130157470703125,0.13555908203125,-0.3800048828125
2024-06-20T17:51:16.038+02:00,4336.28174925,-0.030029296875,0.14910888671875,-0.4331817626953125
2024-06-20T17:51:16.048+02:00,4336.29180625,-0.0496673583984375,0.167877197265625,-0.522705078125
2024-06-20T17:51:16.058+02:00,4336.30186425,-0.0624542236328125,0.2054443359375,-0.6100616455078125
2024-06-20T17:51:16.068+02:00,4336.311921250001,-0.064788818359375,0.2279815673828125,-0.6882781982421875
2024-06-20T17:51:16.078+02:00,4336.32197925,-0.0718841552734375,0.251129150390625,-0.7335662841796875
2024-06-20T17:51:16.088+02:00,4336.33203625,-0.115020751953125,0.3048553466796875,-0.8026885986328125
2024-06-20T17:51:16.098+02:00,4336.342094250001,-0.1562652587890625,0.40179443359375,-0.8574676513671875
2024-06-20T17:51:16.108+02:00,4336.35215125,-0.19012451171875,0.4729766845703125,-0.8897857666015625
2024-06-20T17:51:16.118+02:00,4336.36220925,-0.2357177734375,0.444580078125,-0.9128265380859375
2024-06-20T17:51:16.128+02:00,4336.37226625,-0.30377197265625,0.3482666015625,-0.916900634765625
2024-06-20T17:51:16.138+02:00,4336.38232425,-0.3607025146484375,0.2852325439453125,-0.9442138671875
2024-06-20T17:51:16.149+02:00,4336.392381250001,-0.396026611328125,0.334564208984375,-0.9494476318359375
2024-06-20T17:51:16.159+02:00,4336.40243925,-0.4167938232421875,0.4509124755859375,-0.968414306640625
2024-06-20T17:51:16.169+02:00,4336.41249625,-0.4107666015625,0.5783538818359375,-1.032150268554688
2024-06-20T17:51:16.179+02:00,4336.42255325,-0.3893890380859375,0.6276397705078125,-1.094223022460938
2024-06-20T17:51:16.189+02:00,4336.43261125,-0.3685150146484375,0.584381103515625,-1.172882080078125
2024-06-20T17:51:16.199+02:00,4336.442668250001,-0.334991455078125,0.4699249267578125,-1.1998291015625
2024-06-20T17:51:16.209+02:00,4336.452726250001,-0.31732177734375,0.356414794921875,-1.171554565429688
2024-06-20T17:51:16.219+02:00,4336.46278325,-0.3432159423828125,0.31500244140625,-1.11431884765625
2024-06-20T17:51:16.229+02:00,4336.47284125,-0.3810882568359375,0.3556671142578125,-1.04998779296875
2024-06-20T17:51:16.239+02:00,4336.48289825,-0.414031982421875,0.4090576171875,-1.026992797851562
2024-06-20T17:51:16.249+02:00,4336.49295625,-0.4150543212890625,0.42352294921875,-1.00341796875
2024-06-20T17:51:16.259+02:00,4336.503013250001,-0.417694091796875,0.42926025390625,-0.9897308349609375
2024-06-20T17:51:16.269+02:00,4336.51307125,-0.45068359375,0.4093780517578125,-0.97998046875
2024-06-20T17:51:16.281+02:00,4336.52312825,-0.4727783203125,0.3430023193359375,-0.9766082763671875
2024-06-20T17:51:16.291+02:00,4336.533186250001,-0.48590087890625,0.2930755615234375,-0.953399658203125
2024-06-20T17:51:16.300+02:00,4336.54324325,-0.501739501953125,0.3062744140625,-0.93450927734375
2024-06-20T17:51:16.309+02:00,4336.553300250001,-0.4907073974609375,0.36236572265625,-0.9126434326171875
2024-06-20T17:51:16.320+02:00,4336.56335825,-0.4704437255859375,0.4233551025390625,-0.88226318359375
2024-06-20T17:51:16.330+02:00,4336.57341525,-0.4718780517578125,0.443450927734375,-0.842132568359375
2024-06-20T17:51:16.340+02:00,4336.583473250001,-0.4753265380859375,0.4282073974609375,-0.810546875
2024-06-20T17:51:16.350+02:00,4336.59353025,-0.46551513671875,0.41534423828125,-0.7718353271484375
2024-06-20T17:51:16.360+02:00,4336.60358825,-0.46319580078125,0.3826141357421875,-0.704925537109375
2024-06-20T17:51:16.370+02:00,4336.61364525,-0.467376708984375,0.3826904296875,-0.6553192138671875
2024-06-20T17:51:16.380+02:00,4336.62370325,-0.4765167236328125,0.4162750244140625,-0.614959716796875
2024-06-20T17:51:16.390+02:00,4336.633760250001,-0.5387115478515625,0.4348297119140625,-0.632965087890625
2024-06-20T17:51:16.400+02:00,4336.643818250001,-0.607421875,0.4337615966796875,-0.6693267822265625
2024-06-20T17:51:16.410+02:00,4336.65387525,-0.6475372314453125,0.434356689453125,-0.668426513671875
2024-06-20T17:51:16.420+02:00,4336.66393325,-0.6836090087890625,0.469970703125,-0.6266937255859375
2024-06-20T17:51:16.430+02:00,4336.67399025,-0.70794677734375,0.4781036376953125,-0.564788818359375
2024-06-20T17:51:16.440+02:00,4336.68404725,-0.745452880859375,0.4838104248046875,-0.5114593505859375
2024-06-20T17:51:16.450+02:00,4336.694105250001,-0.81268310546875,0.46942138671875,-0.5830841064453125
2024-06-20T17:51:16.460+02:00,4336.70416225,-0.831451416015625,0.41259765625,-0.6206207275390625
2024-06-20T17:51:16.471+02:00,4336.71422025,-0.870880126953125,0.402618408203125,-0.57330322265625
2024-06-20T17:51:16.482+02:00,4336.72427725,-0.9150848388671875,0.434112548828125,-0.55877685546875
2024-06-20T17:51:16.492+02:00,4336.73433525,-0.9507904052734375,0.510406494140625,-0.4601287841796875
2024-06-20T17:51:16.500+02:00,4336.744392250001,-1.042327880859375,0.55145263671875,-0.615478515625
2024-06-20T17:51:16.511+02:00,4336.75445025,-0.9019317626953125,0.448760986328125,-0.6568145751953125
2024-06-20T17:51:16.520+02:00,4336.76450725,-0.877716064453125,0.448211669921875,-0.625762939453125
2024-06-20T17:51:16.531+02:00,4336.774565250001,-0.84552001953125,0.4295501708984375,-0.634429931640625
2024-06-20T17:51:16.541+02:00,4336.78462225,-0.8530120849609375,0.44659423828125,-0.59075927734375
2024-06-20T17:51:16.551+02:00,4336.794679250001,-0.8831939697265625,0.46246337890625,-0.5818023681640625
2024-06-20T17:51:16.561+02:00,4336.80473725,-0.937652587890625,0.499114990234375,-0.67486572265625
2024-06-20T17:51:16.571+02:00,4336.81479425,-0.9138031005859375,0.5113983154296875,-0.757568359375
2024-06-20T17:51:16.581+02:00,4336.82485225,-0.9010009765625,0.4862518310546875,-0.7693939208984375
2024-06-20T17:51:16.591+02:00,4336.83490925,-0.841766357421875,0.606536865234375,-0.678619384765625
2024-06-20T17:51:16.601+02:00,4336.84496725,-0.8177490234375,0.6110382080078125,-0.679931640625
2024-06-20T17:51:16.611+02:00,4336.85502425,-0.7982330322265625,0.4217376708984375,-0.762298583984375
2024-06-20T17:51:16.621+02:00,4336.86508225,-0.7669525146484375,0.4321136474609375,-0.6871185302734375
2024-06-20T17:51:16.631+02:00,4336.87513925,-0.8185882568359375,0.4962158203125,-0.616363525390625
2024-06-20T17:51:16.641+02:00,4336.885197250001,-0.903228759765625,0.4192352294921875,-0.61175537109375
2024-06-20T17:51:16.651+02:00,4336.89525425,-0.8794708251953125,0.3994598388671875,-0.6917724609375
2024-06-20T17:51:16.662+02:00,4336.90531225,-0.834686279296875,0.5319671630859375,-0.7143096923828125
2024-06-20T17:51:16.672+02:00,4336.91536925,-0.78900146484375,0.572357177734375,-0.749267578125
2024-06-20T17:51:16.682+02:00,4336.92542625,-0.723358154296875,0.544952392578125,-0.7291717529296875
2024-06-20T17:51:16.692+02:00,4336.935484250001,-0.7196044921875,0.5259552001953125,-0.6228790283203125
2024-06-20T17:51:16.702+02:00,4336.94554125,-0.711090087890625,0.6416015625,-0.53436279296875
2024-06-20T17:51:16.712+02:00,4336.95559925,-0.7433929443359375,0.6405487060546875,-0.5459442138671875
2024-06-20T17:51:16.722+02:00,4336.96565625,-0.78955078125,0.4378662109375,-0.6118927001953125
2024-06-20T17:51:16.732+02:00,4336.97571425,-0.829925537109375,0.2641448974609375,-0.6205291748046875
2024-06-20T17:51:16.742+02:00,4336.985771250001,-0.8632965087890625,0.208892822265625,-0.50494384765625
2024-06-20T17:51:16.752+02:00,4336.99582925,-0.9113922119140625,0.27508544921875,-0.46429443359375
2024-06-20T17:51:16.762+02:00,4337.00588625,-0.9213714599609375,0.4110260009765625,-0.564361572265625
2024-06-20T17:51:16.772+02:00,4337.01594425,-1.056884765625,0.5085296630859375,-0.9051361083984375
2024-06-20T17:51:16.790+02:00,4337.02600125,-1.140396118164062,0.5189666748046875,-1.503326416015625
2024-06-20T17:51:16.792+02:00,4337.03605925,-0.8495941162109375,0.8372650146484375,-0.3861846923828125
2024-06-20T17:51:16.803+02:00,4337.046116250001,-1.038116455078125,0.52734375,-0.138031005859375
2024-06-20T17:51:16.812+02:00,4337.05617325,-0.847442626953125,0.0268707275390625,-0.3144683837890625
2024-06-20T17:51:16.822+02:00,4337.06623125,-0.957061767578125,0.2511444091796875,-0.4232330322265625
2024-06-20T17:51:16.832+02:00,4337.07628825,-1.07635498046875,0.49603271484375,-0.460296630859375
2024-06-20T17:51:16.842+02:00,4337.086346,-1.020706176757812,0.5759124755859375,-0.5484771728515625
2024-06-20T17:51:16.852+02:00,4337.096403,-0.9298248291015625,0.635589599609375,-0.594146728515625
2024-06-20T17:51:16.863+02:00,4337.106461,-0.9364776611328125,0.5460205078125,-0.6303253173828125
2024-06-20T17:51:16.873+02:00,4337.116518,-0.9117889404296875,0.401947021484375,-0.60760498046875
2024-06-20T17:51:16.883+02:00,4337.126576000001,-0.8821258544921875,0.3886871337890625,-0.5582122802734375
2024-06-20T17:51:16.893+02:00,4337.136633,-0.86077880859375,0.36102294921875,-0.5737152099609375
2024-06-20T17:51:16.903+02:00,4337.146691,-0.8295440673828125,0.35040283203125,-0.567718505859375
2024-06-20T17:51:16.913+02:00,4337.156748,-0.8115997314453125,0.395172119140625,-0.5347137451171875
2024-06-20T17:51:16.923+02:00,4337.166806,-0.768157958984375,0.5913238525390625,-0.4081878662109375
2024-06-20T17:51:16.933+02:00,4337.176863000001,-0.7355499267578125,0.837005615234375,-0.36785888671875
2024-06-20T17:51:16.943+02:00,4337.18692,-0.616546630859375,0.85797119140625,-0.4737396240234375
2024-06-20T17:51:16.954+02:00,4337.196978,-0.431304931640625,0.7704010009765625,-0.4404144287109375
2024-06-20T17:51:16.963+02:00,4337.207035,-0.4021759033203125,0.696990966796875,-0.32452392578125
2024-06-20T17:51:16.973+02:00,4337.217093,-0.4391937255859375,0.5804901123046875,-0.2209014892578125
2024-06-20T17:51:16.983+02:00,4337.227150000001,-0.4576263427734375,0.482025146484375,-0.1683349609375
2024-06-20T17:51:16.993+02:00,4337.237208,-0.483642578125,0.514312744140625,-0.1735687255859375
2024-06-20T17:51:17.007+02:00,4337.247265,-0.4857025146484375,0.65716552734375,-0.27410888671875
2024-06-20T17:51:17.014+02:00,4337.257323,-0.3901519775390625,0.7738189697265625,-0.295623779296875
2024-06-20T17:51:17.023+02:00,4337.26738,-0.2317047119140625,0.75054931640625,-0.2407073974609375
2024-06-20T17:51:17.033+02:00,4337.277438,-0.1250152587890625,0.590087890625,-0.142486572265625
2024-06-20T17:51:17.044+02:00,4337.287495,-0.1403045654296875,0.476898193359375,-0.1248321533203125
2024-06-20T17:51:17.056+02:00,4337.297553,-0.195343017578125,0.4650115966796875,-0.1497344970703125
2024-06-20T17:51:17.064+02:00,4337.30761,-0.25634765625,0.497802734375,-0.256805419921875
2024-06-20T17:51:17.074+02:00,4337.317667,-0.2745208740234375,0.583831787109375,-0.34588623046875
2024-06-20T17:51:17.084+02:00,4337.327725,-0.247528076171875,0.717529296875,-0.3312225341796875
2024-06-20T17:51:17.094+02:00,4337.337782000001,-0.2563323974609375,0.810821533203125,-0.34320068359375
2024-06-20T17:51:17.104+02:00,4337.34784,-0.28973388671875,0.8031463623046875,-0.3483734130859375
2024-06-20T17:51:17.114+02:00,4337.357897,-0.374603271484375,0.7500762939453125,-0.3132171630859375
2024-06-20T17:51:17.124+02:00,4337.367955000001,-0.472747802734375,0.7148895263671875,-0.2657470703125
2024-06-20T17:51:17.134+02:00,4337.378012,-0.5319671630859375,0.687255859375,-0.22552490234375
2024-06-20T17:51:17.144+02:00,4337.38807,-0.592987060546875,0.695159912109375,-0.2421875
2024-06-20T17:51:17.154+02:00,4337.398127,-0.6204833984375,0.76495361328125,-0.3325958251953125
2024-06-20T17:51:17.164+02:00,4337.408185,-0.6179046630859375,0.891876220703125,-0.3822174072265625
2024-06-20T17:51:17.174+02:00,4337.418242000001,-0.6012115478515625,0.9310150146484375,-0.413482666015625
2024-06-20T17:51:17.184+02:00,4337.4283,-0.5718994140625,0.8185577392578125,-0.3943939208984375
2024-06-20T17:51:17.194+02:00,4337.438357,-0.5856781005859375,0.714324951171875,-0.3057098388671875
2024-06-20T17:51:17.204+02:00,4337.448414,-0.6526031494140625,0.6856536865234375,-0.2666015625
2024-06-20T17:51:17.215+02:00,4337.458472,-0.7176971435546875,0.7444000244140625,-0.3428497314453125
2024-06-20T17:51:17.225+02:00,4337.468529000001,-0.759674072265625,0.843017578125,-0.4768218994140625
2024-06-20T17:51:17.235+02:00,4337.478587000001,-0.79119873046875,0.91510009765625,-0.579254150390625
2024-06-20T17:51:17.245+02:00,4337.488644,-0.8305816650390625,0.943206787109375,-0.627471923828125
2024-06-20T17:51:17.255+02:00,4337.498702,-0.876495361328125,0.9421844482421875,-0.637176513671875
2024-06-20T17:51:17.265+02:00,4337.508759,-0.9158477783203125,0.9779815673828125,-0.6298980712890625
2024-06-20T17:51:17.275+02:00,4337.518817,-0.9204254150390625,0.9927825927734375,-0.6264190673828125
2024-06-20T17:51:17.285+02:00,4337.528874000001,-0.882598876953125,1.043807983398438,-0.6350250244140625
2024-06-20T17:51:17.295+02:00,4337.538932,-0.8306427001953125,1.1158447265625,-0.641937255859375
2024-06-20T17:51:17.305+02:00,4337.548989,-0.75994873046875,1.13372802734375,-0.63043212890625
2024-06-20T17:51:17.315+02:00,4337.559047000001,-0.69403076171875,1.158676147460938,-0.6122589111328125
2024-06-20T17:51:17.325+02:00,4337.569104,-0.683380126953125,1.128814697265625,-0.634765625
2024-06-20T17:51:17.335+02:00,4337.579162,-0.6757049560546875,1.100723266601562,-0.6439971923828125
2024-06-20T17:51:17.345+02:00,4337.589219,-0.6602630615234375,1.141983032226562,-0.60516357421875
2024-06-20T17:51:17.355+02:00,4337.599276,-0.6215972900390625,1.182540893554688,-0.61065673828125
2024-06-20T17:51:17.365+02:00,4337.609334000001,-0.5647125244140625,1.225677490234375,-0.6252899169921875
2024-06-20T17:51:17.376+02:00,4337.619391,-0.509307861328125,1.256271362304688,-0.59173583984375
2024-06-20T17:51:17.386+02:00,4337.629449,-0.4590911865234375,1.299209594726562,-0.5417633056640625
2024-06-20T17:51:17.396+02:00,4337.639506,-0.389068603515625,1.28253173828125,-0.4744415283203125
2024-06-20T17:51:17.406+02:00,4337.649564,-0.335662841796875,1.216217041015625,-0.4083251953125
2024-06-20T17:51:17.416+02:00,4337.659621000001,-0.3048095703125,1.177230834960938,-0.3670654296875
2024-06-20T17:51:17.426+02:00,4337.669679000001,-0.2818145751953125,1.144012451171875,-0.3428955078125
2024-06-20T17:51:17.436+02:00,4337.679736,-0.258453369140625,1.1297607421875,-0.3336181640625
2024-06-20T17:51:17.446+02:00,4337.689794,-0.2363739013671875,1.10296630859375,-0.3211822509765625
2024-06-20T17:51:17.456+02:00,4337.699851,-0.223419189453125,1.072494506835938,-0.3114471435546875
2024-06-20T17:51:17.466+02:00,4337.709909,-0.215728759765625,1.06903076171875,-0.2879638671875
2024-06-20T17:51:17.476+02:00,4337.719966000001,-0.2259368896484375,1.075653076171875,-0.2706451416015625
2024-06-20T17:51:17.486+02:00,4337.730023,-0.23553466796875,1.04541015625,-0.2014312744140625
2024-06-20T17:51:17.496+02:00,4337.740081,-0.2254638671875,1.010833740234375,-0.1427154541015625
2024-06-20T17:51:17.506+02:00,4337.750138,-0.2193756103515625,0.9478912353515625,-0.1234283447265625
2024-06-20T17:51:17.516+02:00,4337.760196,-0.2077789306640625,0.9014434814453125,-0.106353759765625
2024-06-20T17:51:17.526+02:00,4337.770253000001,-0.17303466796875,0.9012451171875,-0.0769805908203125
2024-06-20T17:51:17.536+02:00,4337.780311,-0.13031005859375,0.8992462158203125,-0.04742431640625
2024-06-20T17:51:17.546+02:00,4337.790368,-0.1020050048828125,0.8733978271484375,-0.038330078125
2024-06-20T17:51:17.557+02:00,4337.800426000001,-0.0887908935546875,0.835205078125,-0.00787353515625
2024-06-20T17:51:17.567+02:00,4337.810483,-0.086151123046875,0.8332672119140625,0.0104217529296875
2024-06-20T17:51:17.577+02:00,4337.820541,-0.0895233154296875,0.871368408203125,0.0258941650390625
2024-06-20T17:51:17.587+02:00,4337.830598,-0.0957183837890625,0.908538818359375,0.0361175537109375
2024-06-20T17:51:17.597+02:00,4337.840656,-0.1031341552734375,0.9088592529296875,0.028472900390625
2024-06-20T17:51:17.607+02:00,4337.850713,-0.0782318115234375,0.885284423828125,0.04339599609375
2024-06-20T17:51:17.617+02:00,4337.86077,-0.03729248046875,0.856719970703125,0.107177734375
2024-06-20T17:51:17.627+02:00,4337.870828,0.0142364501953125,0.839324951171875,0.16302490234375
2024-06-20T17:51:17.637+02:00,4337.880885,0.0779571533203125,0.85699462890625,0.2035980224609375
2024-06-20T17:51:17.647+02:00,4337.890943,0.1339111328125,0.8892364501953125,0.219329833984375
2024-06-20T17:51:17.657+02:00,4337.901,0.16534423828125,0.944854736328125,0.2230987548828125
2024-06-20T17:51:17.667+02:00,4337.911058000001,0.1468963623046875,1.014007568359375,0.1852569580078125
2024-06-20T17:51:17.677+02:00,4337.921115,0.1065826416015625,1.055191040039062,0.135009765625
2024-06-20T17:51:17.687+02:00,4337.931173,0.0847015380859375,1.035964965820312,0.156494140625
2024-06-20T17:51:17.697+02:00,4337.94123,0.1145172119140625,0.9473419189453125,0.1674957275390625
2024-06-20T17:51:17.707+02:00,4337.951288,0.1858062744140625,0.8590087890625,0.15484619140625
2024-06-20T17:51:17.717+02:00,4337.961345000001,0.2662811279296875,0.816925048828125,0.14697265625
2024-06-20T17:51:17.728+02:00,4337.971403,0.3270416259765625,0.8416900634765625,0.131256103515625
2024-06-20T17:51:17.738+02:00,4337.98146,0.364044189453125,0.8686981201171875,0.1112060546875
2024-06-20T17:51:17.748+02:00,4337.991517,0.383941650390625,0.87750244140625,0.0989532470703125
2024-06-20T17:51:17.758+02:00,4338.001575,0.376129150390625,0.857574462890625,0.0923309326171875
2024-06-20T17:51:17.768+02:00,4338.011632000001,0.355010986328125,0.8182220458984375,0.054901123046875
2024-06-20T17:51:17.778+02:00,4338.02169,0.355743408203125,0.826904296875,0.0504302978515625
2024-06-20T17:51:17.788+02:00,4338.031747,0.3553924560546875,0.8277740478515625,0.0461273193359375
2024-06-20T17:51:17.798+02:00,4338.041805,0.3619537353515625,0.7877655029296875,0.0165863037109375
2024-06-20T17:51:17.808+02:00,4338.051862,0.3893890380859375,0.76519775390625,0.031768798828125
2024-06-20T17:51:17.818+02:00,4338.06192,0.4236297607421875,0.74774169921875,0.0333709716796875
2024-06-20T17:51:17.828+02:00,4338.071977000001,0.4651031494140625,0.7451171875,0.0634002685546875
2024-06-20T17:51:17.838+02:00,4338.082035,0.4999542236328125,0.764984130859375,0.088653564453125
2024-06-20T17:51:17.848+02:00,4338.092092125,0.506256103515625,0.7213897705078125,0.0497283935546875
2024-06-20T17:51:17.858+02:00,4338.102150125001,0.5032958984375,0.7034454345703125,0.017608642578125
2024-06-20T17:51:17.868+02:00,4338.112207125,0.49658203125,0.7372589111328125,0.017364501953125
2024-06-20T17:51:17.878+02:00,4338.122265125,0.4845123291015625,0.70733642578125,0.0297088623046875
2024-06-20T17:51:17.888+02:00,4338.132322125,0.4951171875,0.6637420654296875,0.042694091796875
2024-06-20T17:51:17.899+02:00,4338.142379125,0.5375213623046875,0.6108245849609375,0.1570892333984375
2024-06-20T17:51:17.909+02:00,4338.152437125001,0.600372314453125,0.5697174072265625,0.24530029296875
2024-06-20T17:51:17.919+02:00,4338.162494125,0.6798248291015625,0.5762481689453125,0.3970794677734375
2024-06-20T17:51:17.929+02:00,4338.172552125,0.736175537109375,0.579254150390625,0.522979736328125
2024-06-20T17:51:17.939+02:00,4338.182609125,0.75927734375,0.5301055908203125,0.5763092041015625
2024-06-20T17:51:17.949+02:00,4338.192667125,0.7224578857421875,0.50921630859375,0.6077423095703125
2024-06-20T17:51:17.959+02:00,4338.202724125001,0.594818115234375,0.4988555908203125,0.4480743408203125
2024-06-20T17:51:17.969+02:00,4338.212782125001,0.3856201171875,0.4400482177734375,0.1946868896484375
2024-06-20T17:51:17.979+02:00,4338.222839125,0.205230712890625,0.4576263427734375,-0.1617279052734375
2024-06-20T17:51:17.989+02:00,4338.232897125,0.15032958984375,0.57623291015625,-0.344390869140625
2024-06-20T17:51:17.999+02:00,4338.242954125,0.2184600830078125,0.7860260009765625,-0.4083709716796875
2024-06-20T17:51:18.009+02:00,4338.253012125,0.2755126953125,0.923980712890625,-0.6908721923828125
2024-06-20T17:51:18.019+02:00,4338.263069125001,0.28363037109375,0.870880126953125,-1.035736083984375
2024-06-20T17:51:18.029+02:00,4338.273126125,0.4472198486328125,0.96771240234375,-0.9337921142578125
2024-06-20T17:51:18.040+02:00,4338.283184125,0.69464111328125,0.85723876953125,-0.74542236328125
2024-06-20T17:51:18.049+02:00,4338.293241125,0.9066162109375,0.4956207275390625,-0.292755126953125
2024-06-20T17:51:18.059+02:00,4338.303299125,1.094161987304688,0.5363311767578125,6.785919189453125
2024-06-20T17:51:18.070+02:00,4338.313356125001,1.010360717773438,-5.051513671875,-4.890060424804688
2024-06-20T17:51:18.080+02:00,4338.323414125,-3.1302490234375,-1.82513427734375,-3.958084106445312
2024-06-20T17:51:18.090+02:00,4338.333471125,-3.702926635742188,2.552017211914062,-2.692916870117188
2024-06-20T17:51:18.100+02:00,4338.343529125001,-1.798843383789062,0.997772216796875,-3.751144409179688
2024-06-20T17:51:18.110+02:00,4338.353586125,-0.0748443603515625,0.0861053466796875,-2.288955688476562
2024-06-20T17:51:18.120+02:00,4338.363644125,0.4498748779296875,0.12615966796875,-1.167633056640625
2024-06-20T17:51:18.130+02:00,4338.373701125,0.803131103515625,0.22076416015625,-0.36785888671875
2024-06-20T17:51:18.140+02:00,4338.383759125,1.230117797851562,0.579864501953125,-0.235443115234375
2024-06-20T17:51:18.150+02:00,4338.393816125,1.3623046875,1.060760498046875,-0.028839111328125
2024-06-20T17:51:18.160+02:00,4338.403873125,1.211898803710938,1.066299438476562,0.2073211669921875
2024-06-20T17:51:18.170+02:00,4338.413931125,1.079299926757812,0.842803955078125,0.234161376953125
2024-06-20T17:51:18.180+02:00,4338.423988125001,0.94317626953125,0.6170654296875,0.1754913330078125
2024-06-20T17:51:18.190+02:00,4338.434046125,0.75567626953125,0.4263458251953125,0.153167724609375
2024-06-20T17:51:18.200+02:00,4338.444103125,0.56488037109375,0.2425994873046875,0.0305938720703125
2024-06-20T17:51:18.210+02:00,4338.454161125001,0.413116455078125,0.174560546875,-0.1176605224609375
2024-06-20T17:51:18.220+02:00,4338.464218125,0.3118896484375,0.18621826171875,-0.31634521484375
2024-06-20T17:51:18.230+02:00,4338.474276125,0.27447509765625,0.2628021240234375,-0.471282958984375
2024-06-20T17:51:18.241+02:00,4338.484333125,0.2640838623046875,0.317657470703125,-0.49493408203125
2024-06-20T17:51:18.251+02:00,4338.494391125,0.2262115478515625,0.2643280029296875,-0.5858306884765625
2024-06-20T17:51:18.261+02:00,4338.504448125001,0.2223968505859375,0.223846435546875,-0.6383819580078125
2024-06-20T17:51:18.271+02:00,4338.514506125,0.2019805908203125,0.2422332763671875,-0.546630859375
2024-06-20T17:51:18.281+02:00,4338.524563125,0.11956787109375,0.25836181640625,-0.4928436279296875
2024-06-20T17:51:18.291+02:00,4338.534621125,0.06939697265625,0.32330322265625,-0.5335845947265625
2024-06-20T17:51:18.301+02:00,4338.544678125,0.0592803955078125,0.4864654541015625,-0.2609405517578125
2024-06-20T17:51:18.311+02:00,4338.554735125001,0.005340576171875,0.752288818359375,-0.413177490234375
2024-06-20T17:51:18.321+02:00,4338.564793125001,-0.008544921875,0.9584808349609375,-0.4726409912109375
2024-06-20T17:51:18.331+02:00,4338.574850125,-0.02850341796875,1.126129150390625,-0.6032867431640625
2024-06-20T17:51:18.341+02:00,4338.584908125,0.04296875,1.429168701171875,-0.487030029296875
2024-06-20T17:51:18.351+02:00,4338.594965125,0.1257781982421875,1.474609375,-0.4803314208984375
2024-06-20T17:51:18.361+02:00,4338.605023125,0.22503662109375,1.120574951171875,-0.552001953125
2024-06-20T17:51:18.371+02:00,4338.615080125001,0.32818603515625,0.798675537109375,-0.6118316650390625
2024-06-20T17:51:18.381+02:00,4338.625138125,0.395416259765625,0.6506500244140625,-0.6064453125
2024-06-20T17:51:18.391+02:00,4338.635195125,0.4063720703125,0.68353271484375,-0.5571746826171875
2024-06-20T17:51:18.401+02:00,4338.645253125001,0.3920440673828125,0.8081817626953125,-0.545654296875
2024-06-20T17:51:18.411+02:00,4338.655310125,0.40020751953125,0.9799041748046875,-0.587493896484375
2024-06-20T17:51:18.421+02:00,4338.665368125,0.4029998779296875,1.144241333007812,-0.62689208984375
2024-06-20T17:51:18.432+02:00,4338.675425125,0.39788818359375,1.270660400390625,-0.69952392578125
2024-06-20T17:51:18.442+02:00,4338.685482125,0.40252685546875,1.282470703125,-0.7394256591796875
2024-06-20T17:51:18.452+02:00,4338.695540125001,0.3933563232421875,1.105880737304688,-0.750732421875
2024-06-20T17:51:18.462+02:00,4338.705597125,0.3513641357421875,0.8562469482421875,-0.7592315673828125
2024-06-20T17:51:18.472+02:00,4338.715655125,0.2872314453125,0.7498321533203125,-0.7250213623046875
2024-06-20T17:51:18.482+02:00,4338.725712125,0.2265167236328125,0.7918853759765625,-0.75048828125
2024-06-20T17:51:18.492+02:00,4338.735770125,0.1946563720703125,0.9183807373046875,-0.82061767578125
2024-06-20T17:51:18.502+02:00,4338.745827125001,0.208404541015625,1.099472045898438,-0.859832763671875
2024-06-20T17:51:18.512+02:00,4338.755885125001,0.236541748046875,1.174530029296875,-0.819610595703125
2024-06-20T17:51:18.522+02:00,4338.765942125,0.2540435791015625,1.10333251953125,-0.7545166015625
2024-06-20T17:51:18.532+02:00,4338.776000125,0.2365264892578125,1.032058715820312,-0.7106781005859375
2024-06-20T17:51:18.542+02:00,4338.786057125,0.17578125,1.003936767578125,-0.769561767578125
2024-06-20T17:51:18.552+02:00,4338.796115125,0.1070098876953125,0.92425537109375,-0.83184814453125
2024-06-20T17:51:18.562+02:00,4338.806172125001,0.0536651611328125,0.8311920166015625,-0.8220977783203125
2024-06-20T17:51:18.572+02:00,4338.816230125,0.0090484619140625,0.7877960205078125,-0.7615509033203125
2024-06-20T17:51:18.582+02:00,4338.826287125,-0.00244140625,0.757904052734375,-0.759490966796875
2024-06-20T17:51:18.592+02:00,4338.836344125,0.039337158203125,0.693817138671875,-0.763275146484375
2024-06-20T17:51:18.602+02:00,4338.846402125,0.0726470947265625,0.6711883544921875,-0.7703857421875
2024-06-20T17:51:18.612+02:00,4338.856459125001,0.111419677734375,0.7358856201171875,-0.7598876953125
2024-06-20T17:51:18.623+02:00,4338.866517125,0.16497802734375,0.77752685546875,-0.7018585205078125
2024-06-20T17:51:18.633+02:00,4338.876574125,0.1560516357421875,0.7675628662109375,-0.65960693359375
2024-06-20T17:51:18.643+02:00,4338.886632125001,0.1129913330078125,0.7026214599609375,-0.697113037109375
2024-06-20T17:51:18.653+02:00,4338.896689125,0.0655059814453125,0.699127197265625,-0.7060394287109375
2024-06-20T17:51:18.663+02:00,4338.906747125,-0.032684326171875,0.7813873291015625,-0.789825439453125
2024-06-20T17:51:18.673+02:00,4338.916804125,-0.072998046875,0.86181640625,-0.804443359375
2024-06-20T17:51:18.683+02:00,4338.926862125,-0.08404541015625,0.7950286865234375,-0.75189208984375
2024-06-20T17:51:18.693+02:00,4338.936919125001,-0.082977294921875,0.5394439697265625,-0.6618499755859375
2024-06-20T17:51:18.703+02:00,4338.946977125001,-0.1099090576171875,0.137542724609375,-0.585845947265625
2024-06-20T17:51:18.713+02:00,4338.957034125,-0.141815185546875,-0.07720947265625,-0.5605316162109375
2024-06-20T17:51:18.723+02:00,4338.967091125,-0.1746063232421875,0.2509307861328125,-0.455902099609375
2024-06-20T17:51:18.733+02:00,4338.977149125,-0.257415771484375,0.9232177734375,-0.3845977783203125
2024-06-20T17:51:18.743+02:00,4338.987206125,-0.335723876953125,1.296356201171875,-0.4080657958984375
2024-06-20T17:51:18.753+02:00,4338.997264125001,-0.3202972412109375,1.318038940429688,-0.5623931884765625
2024-06-20T17:51:18.763+02:00,4339.007321125,-0.2552490234375,1.218826293945312,-0.6056671142578125
2024-06-20T17:51:18.773+02:00,4339.017379125,-0.345672607421875,1.02166748046875,-0.745574951171875
2024-06-20T17:51:18.784+02:00,4339.027436125,-0.4359588623046875,0.878692626953125,-0.7756805419921875
2024-06-20T17:51:18.794+02:00,4339.037494125,-0.4909210205078125,0.9130401611328125,-0.575042724609375
2024-06-20T17:51:18.804+02:00,4339.047551125001,-0.5662841796875,0.8945159912109375,-0.372467041015625
2024-06-20T17:51:18.814+02:00,4339.057609125,-0.606903076171875,0.8633270263671875,-0.29608154296875
2024-06-20T17:51:18.824+02:00,4339.067666125,-0.6001739501953125,0.9235687255859375,-0.282135009765625
2024-06-20T17:51:18.834+02:00,4339.077724125001,-0.560943603515625,0.9689483642578125,-0.3466339111328125
2024-06-20T17:51:18.844+02:00,4339.087781041667,-0.49200439453125,0.9494171142578125,-0.3890380859375
2024-06-20T17:51:18.854+02:00,4339.097839041667,-0.4199371337890625,0.8680572509765625,-0.396392822265625
2024-06-20T17:51:18.864+02:00,4339.107896041667,-0.373504638671875,0.7786102294921875,-0.40069580078125
2024-06-20T17:51:18.874+02:00,4339.117954041667,-0.353912353515625,0.7400665283203125,-0.4160614013671875
2024-06-20T17:51:18.884+02:00,4339.128011041667,-0.334136962890625,0.7614593505859375,-0.44964599609375
2024-06-20T17:51:18.894+02:00,4339.138068041667,-0.3033294677734375,0.8201751708984375,-0.4465789794921875
2024-06-20T17:51:18.904+02:00,4339.148126041667,-0.2767181396484375,0.8672943115234375,-0.4592437744140625
2024-06-20T17:51:18.914+02:00,4339.158183041667,-0.2567138671875,0.886016845703125,-0.482818603515625
2024-06-20T17:51:18.924+02:00,4339.168241041667,-0.2406463623046875,0.9129486083984375,-0.4889373779296875
2024-06-20T17:51:18.934+02:00,4339.178298041666,-0.2332305908203125,0.9581756591796875,-0.4736480712890625
2024-06-20T17:51:18.945+02:00,4339.188356041667,-0.2373809814453125,0.9820556640625,-0.4511566162109375
2024-06-20T17:51:18.955+02:00,4339.198413041667,-0.2331085205078125,0.978363037109375,-0.433624267578125
2024-06-20T17:51:18.965+02:00,4339.208471041667,-0.2164764404296875,0.9571685791015625,-0.420501708984375
2024-06-20T17:51:18.975+02:00,4339.218528041667,-0.19775390625,0.9239349365234375,-0.4182281494140625
2024-06-20T17:51:18.985+02:00,4339.228586041667,-0.1837158203125,0.9116363525390625,-0.3947296142578125
2024-06-20T17:51:18.995+02:00,4339.238643041667,-0.1952362060546875,0.9161834716796875,-0.364837646484375
2024-06-20T17:51:19.005+02:00,4339.248701041667,-0.218719482421875,0.9309234619140625,-0.3279876708984375
2024-06-20T17:51:19.015+02:00,4339.258758041667,-0.237884521484375,0.967926025390625,-0.292236328125
2024-06-20T17:51:19.025+02:00,4339.268816041667,-0.2482757568359375,0.972320556640625,-0.3062591552734375
2024-06-20T17:51:19.035+02:00,4339.278873041667,-0.2384033203125,0.946624755859375,-0.340850830078125
2024-06-20T17:51:19.045+02:00,4339.288930041667,-0.2291412353515625,0.9228973388671875,-0.3729248046875
2024-06-20T17:51:19.055+02:00,4339.298988041667,-0.214691162109375,0.9160308837890625,-0.3798828125
2024-06-20T17:51:19.065+02:00,4339.309045041667,-0.1966094970703125,0.9016876220703125,-0.36138916015625
2024-06-20T17:51:19.075+02:00,4339.319103041666,-0.1894989013671875,0.86395263671875,-0.3477630615234375
2024-06-20T17:51:19.085+02:00,4339.329160041667,-0.19195556640625,0.8283843994140625,-0.328125
2024-06-20T17:51:19.095+02:00,4339.339218041667,-0.2040252685546875,0.8214569091796875,-0.3177032470703125
2024-06-20T17:51:19.105+02:00,4339.349275041667,-0.2085723876953125,0.8333587646484375,-0.2957763671875
2024-06-20T17:51:19.115+02:00,4339.359333041667,-0.2117156982421875,0.8402862548828125,-0.27252197265625
2024-06-20T17:51:19.126+02:00,4339.369390041667,-0.21441650390625,0.83953857421875,-0.2842864990234375
2024-06-20T17:51:19.136+02:00,4339.379448041667,-0.2056884765625,0.857818603515625,-0.30908203125
2024-06-20T17:51:19.146+02:00,4339.389505041667,-0.18798828125,0.8851776123046875,-0.3171234130859375
2024-06-20T17:51:19.156+02:00,4339.399563041667,-0.1746368408203125,0.9009552001953125,-0.302581787109375
2024-06-20T17:51:19.166+02:00,4339.409620041667,-0.1790313720703125,0.92205810546875,-0.285400390625
2024-06-20T17:51:19.176+02:00,4339.419677041667,-0.1941375732421875,0.9479827880859375,-0.281158447265625
2024-06-20T17:51:19.186+02:00,4339.429735041667,-0.222625732421875,0.9781951904296875,-0.2558135986328125
2024-06-20T17:51:19.196+02:00,4339.439792041667,-0.25201416015625,0.984771728515625,-0.2207183837890625
2024-06-20T17:51:19.206+02:00,4339.449850041667,-0.2506561279296875,0.9828338623046875,-0.2019195556640625
2024-06-20T17:51:19.216+02:00,4339.459907041667,-0.2025909423828125,0.9496612548828125,-0.1264801025390625
2024-06-20T17:51:19.226+02:00,4339.469965041667,-0.1629180908203125,0.889923095703125,-0.134307861328125
2024-06-20T17:51:19.236+02:00,4339.480022041667,-0.109344482421875,0.8409576416015625,-0.165924072265625
2024-06-20T17:51:19.246+02:00,4339.490080041667,-0.0488433837890625,0.81182861328125,-0.1651458740234375
2024-06-20T17:51:19.256+02:00,4339.500137041667,-0.0396270751953125,0.833221435546875,-0.1609039306640625
2024-06-20T17:51:19.266+02:00,4339.510195041667,-0.0775604248046875,0.8677978515625,-0.208343505859375
2024-06-20T17:51:19.276+02:00,4339.520252041667,-0.1073455810546875,0.967315673828125,-0.24993896484375
2024-06-20T17:51:19.286+02:00,4339.530310041667,-0.1147308349609375,1.099365234375,-0.2198333740234375
2024-06-20T17:51:19.296+02:00,4339.540367041667,-0.1035614013671875,1.154083251953125,-0.2056884765625
2024-06-20T17:51:19.307+02:00,4339.550425041667,-0.0740966796875,1.12615966796875,-0.172210693359375
2024-06-20T17:51:19.317+02:00,4339.560482041667,-0.0345458984375,1.075851440429688,-0.1773681640625
2024-06-20T17:51:19.327+02:00,4339.570539041667,0.0096893310546875,1.112548828125,-0.115081787109375
2024-06-20T17:51:19.337+02:00,4339.580597041667,0.0169525146484375,1.137069702148438,-0.058319091796875
2024-06-20T17:51:19.347+02:00,4339.590654041667,0.0085906982421875,1.0987548828125,-0.101226806640625
2024-06-20T17:51:19.357+02:00,4339.600712041667,0.0164031982421875,1.061279296875,-0.13153076171875
2024-06-20T17:51:19.367+02:00,4339.610769041667,0.002532958984375,1.029373168945312,-0.13543701171875
2024-06-20T17:51:19.377+02:00,4339.620827041667,-0.0452728271484375,1.035964965820312,-0.114349365234375
2024-06-20T17:51:19.387+02:00,4339.630884041667,-0.0885772705078125,1.075881958007812,-0.0907135009765625
2024-06-20T17:51:19.397+02:00,4339.640942041667,-0.1024322509765625,1.114990234375,-0.09393310546875
2024-06-20T17:51:19.408+02:00,4339.650999041667,-0.08624267578125,1.141754150390625,-0.082244873046875
2024-06-20T17:51:19.417+02:00,4339.661057041667,-0.0745849609375,1.162399291992188,-0.0558319091796875
2024-06-20T17:51:19.427+02:00,4339.671114041667,-0.07586669921875,1.169143676757812,-0.054595947265625
2024-06-20T17:51:19.437+02:00,4339.681172041667,-0.0722808837890625,1.1346435546875,-0.082275390625
2024-06-20T17:51:19.447+02:00,4339.691229041667,-0.0640106201171875,1.067962646484375,-0.09259033203125
2024-06-20T17:51:19.457+02:00,4339.701287041667,-0.0710296630859375,1.03759765625,-0.086669921875
2024-06-20T17:51:19.467+02:00,4339.711344041667,-0.087066650390625,1.02471923828125,-0.12359619140625
2024-06-20T17:51:19.478+02:00,4339.721401041667,-0.07110595703125,1.00360107421875,-0.0791778564453125
2024-06-20T17:51:19.488+02:00,4339.731459041667,-0.07708740234375,0.9900665283203125,-0.06170654296875
2024-06-20T17:51:19.498+02:00,4339.741516041667,-0.0861053466796875,1.009201049804688,-0.0420379638671875
2024-06-20T17:51:19.508+02:00,4339.751574041667,-0.08538818359375,1.022628784179688,-0.0048828125
2024-06-20T17:51:19.518+02:00,4339.761631041667,-0.09503173828125,1.024551391601562,-0.01959228515625
2024-06-20T17:51:19.528+02:00,4339.771689041667,-0.0919189453125,1.103256225585938,-0.0173797607421875
2024-06-20T17:51:19.538+02:00,4339.781746041667,-0.0886993408203125,1.163467407226562,0.00128173828125
2024-06-20T17:51:19.548+02:00,4339.791804041667,-0.082366943359375,1.15081787109375,-0.00750732421875
2024-06-20T17:51:19.558+02:00,4339.801861041667,-0.082061767578125,1.142425537109375,-0.004180908203125
2024-06-20T17:51:19.568+02:00,4339.811919041667,-0.1173248291015625,1.120391845703125,0.0060577392578125
2024-06-20T17:51:19.578+02:00,4339.821976041667,-0.1588592529296875,1.056716918945312,-0.0090484619140625
2024-06-20T17:51:19.588+02:00,4339.832034041667,-0.1738739013671875,1.015899658203125,-0.0208282470703125
2024-06-20T17:51:19.598+02:00,4339.842091041667,-0.167694091796875,0.98870849609375,-0.010650634765625
2024-06-20T17:51:19.608+02:00,4339.852148041667,-0.1639404296875,0.984100341796875,0.0065155029296875
2024-06-20T17:51:19.618+02:00,4339.862206041667,-0.1623992919921875,1.039077758789062,0.0038909912109375
2024-06-20T17:51:19.628+02:00,4339.872263041667,-0.134796142578125,1.104400634765625,0.009063720703125
2024-06-20T17:51:19.638+02:00,4339.882321041667,-0.10797119140625,1.116989135742188,0.048065185546875
2024-06-20T17:51:19.648+02:00,4339.892378041667,-0.11370849609375,1.094818115234375,0.02825927734375
2024-06-20T17:51:19.659+02:00,4339.902436041667,-0.114349365234375,1.051361083984375,0.0203704833984375
2024-06-20T17:51:19.669+02:00,4339.912493041666,-0.1283416748046875,1.004425048828125,0.00494384765625
2024-06-20T17:51:19.679+02:00,4339.922551041667,-0.1651458740234375,1.002197265625,-0.058807373046875
2024-06-20T17:51:19.689+02:00,4339.932608041667,-0.1599273681640625,0.97332763671875,-0.1353912353515625
2024-06-20T17:51:19.699+02:00,4339.942666041667,-0.1182403564453125,0.9410247802734375,-0.166839599609375
2024-06-20T17:51:19.709+02:00,4339.952723041667,-0.0941619873046875,0.951751708984375,-0.1480712890625
2024-06-20T17:51:19.719+02:00,4339.962781041667,-0.07598876953125,0.9706268310546875,-0.1148223876953125
2024-06-20T17:51:19.729+02:00,4339.972838041667,-0.05572509765625,0.9875030517578125,-0.08197021484375
2024-06-20T17:51:19.739+02:00,4339.982896041667,-0.0384521484375,0.978759765625,-0.051544189453125
2024-06-20T17:51:19.749+02:00,4339.992953041667,-0.023284912109375,0.9610137939453125,-0.0213165283203125
2024-06-20T17:51:19.759+02:00,4340.003011041667,-0.014129638671875,0.963714599609375,-0.006072998046875
2024-06-20T17:51:19.769+02:00,4340.013068041667,-0.010711669921875,0.964599609375,-0.0076904296875
2024-06-20T17:51:19.779+02:00,4340.023125041667,-0.02789306640625,0.962188720703125,-0.05096435546875
2024-06-20T17:51:19.790+02:00,4340.033183041667,-0.038787841796875,0.956268310546875,-0.1003875732421875
2024-06-20T17:51:19.799+02:00,4340.043240041667,-0.044219970703125,0.9286956787109375,-0.13372802734375
2024-06-20T17:51:19.809+02:00,4340.053298041666,-0.0522003173828125,0.890533447265625,-0.165374755859375
2024-06-20T17:51:19.819+02:00,4340.063355041667,-0.048431396484375,0.875244140625,-0.164642333984375
2024-06-20T17:51:19.829+02:00,4340.073413041667,-0.039764404296875,0.892486572265625,-0.1295928955078125
2024-06-20T17:51:19.840+02:00,4340.083470041667,-0.024078369140625,0.9342803955078125,-0.113525390625
2024-06-20T17:51:19.850+02:00,4340.093527625,0.0001220703125,0.9819793701171875,-0.0761566162109375
2024-06-20T17:51:19.860+02:00,4340.103584625001,0.0064697265625,1.03558349609375,-0.057525634765625
2024-06-20T17:51:19.870+02:00,4340.113642625,0.0098114013671875,1.05596923828125,-0.059783935546875
2024-06-20T17:51:19.880+02:00,4340.123699625,0.0079803466796875,1.033645629882812,-0.056243896484375
2024-06-20T17:51:19.890+02:00,4340.133757625,-0.0098876953125,0.992156982421875,-0.066619873046875
2024-06-20T17:51:19.900+02:00,4340.143814625,-0.0349273681640625,0.967437744140625,-0.1077728271484375
2024-06-20T17:51:19.910+02:00,4340.153872625,-0.038543701171875,0.9295501708984375,-0.12591552734375
2024-06-20T17:51:19.920+02:00,4340.163929625,-0.041839599609375,0.9085540771484375,-0.128875732421875
2024-06-20T17:51:19.930+02:00,4340.173986625,-0.0331878662109375,0.8932952880859375,-0.103515625
2024-06-20T17:51:19.940+02:00,4340.184044625,-0.0099639892578125,0.8706207275390625,-0.072021484375
2024-06-20T17:51:19.950+02:00,4340.194101625,0.019287109375,0.868804931640625,-0.0514373779296875
2024-06-20T17:51:19.960+02:00,4340.204159625,0.05389404296875,0.8626708984375,-0.05767822265625
2024-06-20T17:51:19.970+02:00,4340.214216625001,0.0830841064453125,0.84625244140625,-0.0744476318359375
2024-06-20T17:51:19.980+02:00,4340.224274625,0.0911712646484375,0.81768798828125,-0.096160888671875
2024-06-20T17:51:19.990+02:00,4340.234331625,0.0831146240234375,0.748199462890625,-0.141326904296875
2024-06-20T17:51:20.001+02:00,4340.244389625001,0.0685577392578125,0.6953887939453125,-0.2234649658203125
2024-06-20T17:51:20.011+02:00,4340.254446625,0.07080078125,0.701904296875,-0.2692108154296875
2024-06-20T17:51:20.021+02:00,4340.264504625,0.070587158203125,0.7707061767578125,-0.2539520263671875
2024-06-20T17:51:20.031+02:00,4340.274561625,0.07421875,0.863739013671875,-0.2615966796875
2024-06-20T17:51:20.041+02:00,4340.284619625,0.10650634765625,0.9953155517578125,-0.2557220458984375
2024-06-20T17:51:20.051+02:00,4340.294676625001,0.150177001953125,1.143768310546875,-0.189605712890625
2024-06-20T17:51:20.061+02:00,4340.304734625,0.1796722412109375,1.230072021484375,-0.14520263671875
2024-06-20T17:51:20.071+02:00,4340.314791625,0.2181396484375,1.244186401367188,-0.146484375
2024-06-20T17:51:20.081+02:00,4340.324848625,0.244903564453125,1.24200439453125,-0.1952667236328125
2024-06-20T17:51:20.091+02:00,4340.334906625,0.25164794921875,1.276687622070312,-0.2422943115234375
2024-06-20T17:51:20.101+02:00,4340.344963625001,0.24041748046875,1.3447265625,-0.3138427734375
2024-06-20T17:51:20.111+02:00,4340.355021625001,0.2372894287109375,1.389129638671875,-0.37213134765625
2024-06-20T17:51:20.121+02:00,4340.365078625,0.2279815673828125,1.45965576171875,-0.3951263427734375
2024-06-20T17:51:20.131+02:00,4340.375136625,0.2074737548828125,1.524505615234375,-0.394012451171875
2024-06-20T17:51:20.141+02:00,4340.385193625,0.2038421630859375,1.55548095703125,-0.36456298828125
2024-06-20T17:51:20.151+02:00,4340.395251625,0.209442138671875,1.562545776367188,-0.345733642578125
2024-06-20T17:51:20.161+02:00,4340.405308625001,0.2136688232421875,1.532882690429688,-0.33056640625
2024-06-20T17:51:20.171+02:00,4340.415366625,0.2101593017578125,1.448150634765625,-0.3299407958984375
2024-06-20T17:51:20.182+02:00,4340.425423625,0.211761474609375,1.346664428710938,-0.3458709716796875
2024-06-20T17:51:20.192+02:00,4340.435481625001,0.2007904052734375,1.261581420898438,-0.3827362060546875
2024-06-20T17:51:20.202+02:00,4340.445538625,0.197052001953125,1.190475463867188,-0.4301605224609375
2024-06-20T17:51:20.212+02:00,4340.455596625,0.20758056640625,1.140151977539062,-0.4442138671875
2024-06-20T17:51:20.222+02:00,4340.465653625,0.22711181640625,1.101364135742188,-0.4357147216796875
2024-06-20T17:51:20.232+02:00,4340.475710625,0.2431182861328125,1.063812255859375,-0.422943115234375
2024-06-20T17:51:20.242+02:00,4340.485768625001,0.245025634765625,1.046234130859375,-0.4195404052734375
2024-06-20T17:51:20.252+02:00,4340.495825625,0.2416839599609375,1.034805297851562,-0.3807830810546875
2024-06-20T17:51:20.262+02:00,4340.505883625,0.227569580078125,1.009902954101562,-0.358062744140625
2024-06-20T17:51:20.272+02:00,4340.515940625,0.215362548828125,0.9337005615234375,-0.3643951416015625
2024-06-20T17:51:20.282+02:00,4340.525998625,0.203033447265625,0.8424835205078125,-0.355865478515625
2024-06-20T17:51:20.292+02:00,4340.536055625001,0.1910247802734375,0.77099609375,-0.3246002197265625
2024-06-20T17:51:20.302+02:00,4340.546113625001,0.1791839599609375,0.7230377197265625,-0.326751708984375
2024-06-20T17:51:20.312+02:00,4340.556170625,0.18023681640625,0.6974029541015625,-0.3551483154296875
2024-06-20T17:51:20.322+02:00,4340.566228625,0.1831817626953125,0.7263641357421875,-0.3514251708984375
2024-06-20T17:51:20.332+02:00,4340.576285625,0.1791839599609375,0.7790679931640625,-0.3377838134765625
2024-06-20T17:51:20.342+02:00,4340.586343625,0.1847686767578125,0.786407470703125,-0.307830810546875
2024-06-20T17:51:20.353+02:00,4340.596400625001,0.200714111328125,0.75714111328125,-0.26556396484375
2024-06-20T17:51:20.363+02:00,4340.606458625,0.2177276611328125,0.74853515625,-0.235198974609375
2024-06-20T17:51:20.373+02:00,4340.616515625,0.23065185546875,0.7117462158203125,-0.234100341796875
2024-06-20T17:51:20.383+02:00,4340.626572625,0.2425689697265625,0.66876220703125,-0.2457275390625
2024-06-20T17:51:20.393+02:00,4340.636630625,0.2616729736328125,0.6490631103515625,-0.2455291748046875
2024-06-20T17:51:20.403+02:00,4340.646687625001,0.29327392578125,0.6103057861328125,-0.2642974853515625
2024-06-20T17:51:20.413+02:00,4340.656745625,0.3374176025390625,0.6100616455078125,-0.2582244873046875
2024-06-20T17:51:20.423+02:00,4340.666802625,0.357574462890625,0.63751220703125,-0.263092041015625
2024-06-20T17:51:20.433+02:00,4340.676860625001,0.35430908203125,0.643585205078125,-0.245025634765625
2024-06-20T17:51:20.443+02:00,4340.686917625,0.334625244140625,0.630401611328125,-0.23236083984375
2024-06-20T17:51:20.453+02:00,4340.696975625,0.321380615234375,0.619293212890625,-0.202056884765625
2024-06-20T17:51:20.463+02:00,4340.707032625,0.3125762939453125,0.6151885986328125,-0.1434326171875
2024-06-20T17:51:20.473+02:00,4340.717090625,0.303375244140625,0.5997314453125,-0.13372802734375
2024-06-20T17:51:20.483+02:00,4340.727147625,0.3044891357421875,0.571807861328125,-0.1304473876953125
2024-06-20T17:51:20.493+02:00,4340.737205625001,0.3060760498046875,0.5596160888671875,-0.1616973876953125
2024-06-20T17:51:20.503+02:00,4340.747262625,0.305816650390625,0.55780029296875,-0.2139434814453125
2024-06-20T17:51:20.513+02:00,4340.757320625,0.3168792724609375,0.5431976318359375,-0.3043060302734375
2024-06-20T17:51:20.523+02:00,4340.767377625,0.3361358642578125,0.527618408203125,-0.3593597412109375
2024-06-20T17:51:20.534+02:00,4340.777435625,0.3339691162109375,0.495391845703125,-0.3905181884765625
2024-06-20T17:51:20.544+02:00,4340.787492625001,0.316314697265625,0.4837493896484375,-0.3759765625
2024-06-20T17:51:20.554+02:00,4340.797549625,0.2826690673828125,0.4701385498046875,-0.36822509765625
2024-06-20T17:51:20.564+02:00,4340.807607625,0.22833251953125,0.43902587890625,-0.357421875
2024-06-20T17:51:20.574+02:00,4340.817664625,0.16888427734375,0.4362335205078125,-0.323211669921875
2024-06-20T17:51:20.584+02:00,4340.827722625,0.114593505859375,0.438812255859375,-0.2935791015625
2024-06-20T17:51:20.594+02:00,4340.837779625001,0.08001708984375,0.443817138671875,-0.290985107421875
2024-06-20T17:51:20.604+02:00,4340.847837625,0.0696258544921875,0.448760986328125,-0.3330230712890625
2024-06-20T17:51:20.614+02:00,4340.857894625,0.0848846435546875,0.440887451171875,-0.395782470703125
2024-06-20T17:51:20.624+02:00,4340.867952625,0.0810394287109375,0.4514007568359375,-0.477447509765625
2024-06-20T17:51:20.634+02:00,4340.878009625,0.070220947265625,0.4246673583984375,-0.60748291015625
2024-06-20T17:51:20.644+02:00,4340.888067625,0.056427001953125,0.401824951171875,-0.7105865478515625
2024-06-20T17:51:20.654+02:00,4340.898124625,0.01507568359375,0.37982177734375,-0.7579345703125
2024-06-20T17:51:20.664+02:00,4340.908182625,-0.0572052001953125,0.350189208984375,-0.77392578125
2024-06-20T17:51:20.674+02:00,4340.918239625,-0.116973876953125,0.3852081298828125,-0.72320556640625
2024-06-20T17:51:20.684+02:00,4340.928297625001,-0.167572021484375,0.4813995361328125,-0.6752166748046875
2024-06-20T17:51:20.694+02:00,4340.938354625,-0.1922760009765625,0.5441741943359375,-0.6965484619140625
2024-06-20T17:51:20.705+02:00,4340.948411625001,-0.1703643798828125,0.5681304931640625,-0.754058837890625
2024-06-20T17:51:20.715+02:00,4340.958469625,-0.1139678955078125,0.52197265625,-0.821075439453125
2024-06-20T17:51:20.725+02:00,4340.968526625,-0.059783935546875,0.4227294921875,-0.92694091796875
2024-06-20T17:51:20.735+02:00,4340.978584625001,-0.0214080810546875,0.30511474609375,-0.9902496337890625
2024-06-20T17:51:20.745+02:00,4340.988641625,-0.0045928955078125,0.2329559326171875,-1.046310424804688
2024-06-20T17:51:20.755+02:00,4340.998699625,-0.0001373291015625,0.2403717041015625,-1.05072021484375
2024-06-20T17:51:20.765+02:00,4341.008756625,-0.012054443359375,0.2047271728515625,-0.955291748046875
2024-06-20T17:51:20.775+02:00,4341.018814625,-0.0407562255859375,0.1909637451171875,-0.8727264404296875
2024-06-20T17:51:20.785+02:00,4341.028871625001,-0.0411376953125,0.2528076171875,-0.8255462646484375
2024-06-20T17:51:20.795+02:00,4341.038929625,0.0052337646484375,0.3862152099609375,-0.802703857421875
2024-06-20T17:51:20.805+02:00,4341.048986625,0.0471343994140625,0.5041961669921875,-0.9683990478515625
2024-06-20T17:51:20.815+02:00,4341.059044625,0.0770721435546875,0.518157958984375,-1.103408813476562
2024-06-20T17:51:20.825+02:00,4341.069101625,0.08502197265625,0.582733154296875,-1.127731323242188
2024-06-20T17:51:20.835+02:00,4341.079159625,0.026519775390625,0.5257415771484375,-1.115463256835938
2024-06-20T17:51:20.845+02:00,4341.089217916667,-0.1340179443359375,0.716278076171875,-1.08807373046875
2024-06-20T17:51:20.856+02:00,4341.099274916667,-0.3990325927734375,1.049270629882812,-1.006668090820312
2024-06-20T17:51:20.865+02:00,4341.109332916667,-0.68670654296875,1.258193969726562,-0.971282958984375
2024-06-20T17:51:20.875+02:00,4341.119389916666,-0.7716827392578125,1.388565063476562,-0.788665771484375
2024-06-20T17:51:20.886+02:00,4341.129447916667,-1.113937377929688,1.69403076171875,-0.2696990966796875
2024-06-20T17:51:20.896+02:00,4341.139504916667,-1.204818725585938,1.869476318359375,-0.8231048583984375
2024-06-20T17:51:20.906+02:00,4341.149562916667,-1.14910888671875,1.7821044921875,-0.8368377685546875
2024-06-20T17:51:20.916+02:00,4341.159619916667,-1.37713623046875,1.906600952148438,-0.845062255859375
2024-06-20T17:51:20.926+02:00,4341.169677916667,-1.306930541992188,2.1397705078125,-0.9452056884765625
2024-06-20T17:51:20.936+02:00,4341.179734916667,-1.262725830078125,2.378219604492188,-0.9336395263671875
2024-06-20T17:51:20.946+02:00,4341.189792916667,-0.999847412109375,2.085464477539062,-0.7587127685546875
2024-06-20T17:51:20.956+02:00,4341.199849916667,-0.85504150390625,1.570526123046875,-0.4036102294921875
2024-06-20T17:51:20.966+02:00,4341.209907916667,-0.8386077880859375,1.34075927734375,-0.11505126953125
2024-06-20T17:51:20.976+02:00,4341.219964916667,-0.8081817626953125,1.328094482421875,-0.1040191650390625
2024-06-20T17:51:20.986+02:00,4341.230022916667,-0.6911773681640625,1.35443115234375,-0.29437255859375
2024-06-20T17:51:20.996+02:00,4341.240079916667,-0.63201904296875,1.320297241210938,-0.49267578125
2024-06-20T17:51:21.006+02:00,4341.250136916667,-0.646026611328125,1.299957275390625,-0.58953857421875
2024-06-20T17:51:21.016+02:00,4341.260194916666,-0.6734771728515625,1.288192749023438,-0.6021270751953125
2024-06-20T17:51:21.026+02:00,4341.270251916667,-0.639617919921875,1.20819091796875,-0.538055419921875
2024-06-20T17:51:21.036+02:00,4341.280309916667,-0.5673828125,1.106857299804688,-0.4259796142578125
2024-06-20T17:51:21.046+02:00,4341.290366916667,-0.50286865234375,1.021087646484375,-0.296661376953125
2024-06-20T17:51:21.056+02:00,4341.300424916667,-0.44708251953125,0.9505157470703125,-0.2605743408203125
2024-06-20T17:51:21.067+02:00,4341.310481916667,-0.397796630859375,0.8865509033203125,-0.2562408447265625
2024-06-20T17:51:21.077+02:00,4341.320539916667,-0.361602783203125,0.8341217041015625,-0.2424468994140625
2024-06-20T17:51:21.087+02:00,4341.330596916667,-0.360015869140625,0.8363494873046875,-0.2603607177734375
2024-06-20T17:51:21.097+02:00,4341.340654916667,-0.362518310546875,0.864715576171875,-0.29254150390625
2024-06-20T17:51:21.107+02:00,4341.350711916667,-0.362548828125,0.9112701416015625,-0.308502197265625
2024-06-20T17:51:21.117+02:00,4341.360769916667,-0.37127685546875,0.9437408447265625,-0.319793701171875
2024-06-20T17:51:21.127+02:00,4341.370826916667,-0.3798065185546875,0.91510009765625,-0.3383331298828125
2024-06-20T17:51:21.137+02:00,4341.380884916667,-0.3824920654296875,0.8466796875,-0.31634521484375
2024-06-20T17:51:21.147+02:00,4341.390941916667,-0.39019775390625,0.7607574462890625,-0.287689208984375
2024-06-20T17:51:21.157+02:00,4341.400999916666,-0.3786163330078125,0.7061614990234375,-0.2295684814453125
2024-06-20T17:51:21.167+02:00,4341.411056916667,-0.3638916015625,0.72076416015625,-0.172332763671875
2024-06-20T17:51:21.177+02:00,4341.421114916667,-0.334228515625,0.7602081298828125,-0.1588592529296875
2024-06-20T17:51:21.187+02:00,4341.431171916667,-0.3130950927734375,0.81915283203125,-0.1965179443359375
2024-06-20T17:51:21.197+02:00,4341.441228916667,-0.2897796630859375,0.8647308349609375,-0.236541748046875
2024-06-20T17:51:21.207+02:00,4341.451286916667,-0.352569580078125,0.8638458251953125,-0.3384246826171875
2024-06-20T17:51:21.217+02:00,4341.461343916667,-0.3385162353515625,0.9102935791015625,-0.3792572021484375
2024-06-20T17:51:21.228+02:00,4341.471401916667,-0.3283538818359375,0.8776397705078125,-0.38372802734375
2024-06-20T17:51:21.238+02:00,4341.481458916667,-0.3284912109375,0.764434814453125,-0.4540557861328125
2024-06-20T17:51:21.248+02:00,4341.491516916667,-0.2780303955078125,0.697052001953125,-0.4496002197265625
2024-06-20T17:51:21.258+02:00,4341.501573916667,-0.2462310791015625,0.6502227783203125,-0.3867950439453125
2024-06-20T17:51:21.268+02:00,4341.511631916667,-0.24127197265625,0.6263580322265625,-0.353851318359375
2024-06-20T17:51:21.278+02:00,4341.521688916667,-0.231292724609375,0.66290283203125,-0.3408660888671875
2024-06-20T17:51:21.288+02:00,4341.531746916667,-0.220001220703125,0.7205810546875,-0.2893829345703125
2024-06-20T17:51:21.298+02:00,4341.541803916667,-0.2375335693359375,0.8337860107421875,-0.342742919921875
2024-06-20T17:51:21.308+02:00,4341.551861916667,-0.2466278076171875,1.000076293945312,-0.3030548095703125
2024-06-20T17:51:21.318+02:00,4341.561918916667,-0.26495361328125,1.08648681640625,-0.319183349609375
2024-06-20T17:51:21.328+02:00,4341.571975916667,-0.2215576171875,1.000244140625,-0.423980712890625
2024-06-20T17:51:21.338+02:00,4341.582033916667,-0.1491546630859375,0.839691162109375,-0.44647216796875
2024-06-20T17:51:21.348+02:00,4341.592090916667,-0.1292724609375,0.7342529296875,-0.44635009765625
2024-06-20T17:51:21.358+02:00,4341.602148916667,-0.143341064453125,0.675750732421875,-0.4581298828125
2024-06-20T17:51:21.368+02:00,4341.612205916667,-0.161041259765625,0.64190673828125,-0.479217529296875
2024-06-20T17:51:21.378+02:00,4341.622263916667,-0.1572113037109375,0.6477508544921875,-0.4459686279296875
2024-06-20T17:51:21.388+02:00,4341.632320916667,-0.133514404296875,0.6751861572265625,-0.3822479248046875
2024-06-20T17:51:21.399+02:00,4341.642378916667,-0.10943603515625,0.7075653076171875,-0.3739776611328125
2024-06-20T17:51:21.409+02:00,4341.652435916667,-0.08233642578125,0.798675537109375,-0.370391845703125
2024-06-20T17:51:21.419+02:00,4341.662493916667,-0.0757598876953125,0.922698974609375,-0.3730926513671875
2024-06-20T17:51:21.429+02:00,4341.672550916667,-0.091400146484375,0.9798126220703125,-0.484222412109375
2024-06-20T17:51:21.439+02:00,4341.682608916667,-0.06378173828125,0.945953369140625,-0.609954833984375
2024-06-20T17:51:21.449+02:00,4341.692665916667,0.0040435791015625,0.83770751953125,-0.67913818359375
2024-06-20T17:51:21.459+02:00,4341.702723916667,0.0664520263671875,0.6854705810546875,-0.7035369873046875
2024-06-20T17:51:21.469+02:00,4341.712780916667,0.1069488525390625,0.596893310546875,-0.711822509765625
2024-06-20T17:51:21.479+02:00,4341.722838916667,0.1298675537109375,0.6099853515625,-0.6701812744140625
2024-06-20T17:51:21.489+02:00,4341.732895916667,0.1168060302734375,0.6984405517578125,-0.568695068359375
2024-06-20T17:51:21.499+02:00,4341.742952916667,0.07611083984375,0.8019256591796875,-0.573028564453125
2024-06-20T17:51:21.509+02:00,4341.753010916667,0.0518798828125,0.8430023193359375,-0.6518096923828125
2024-06-20T17:51:21.519+02:00,4341.763067916667,0.054901123046875,0.8885498046875,-0.6486358642578125
2024-06-20T17:51:21.529+02:00,4341.773125916667,0.0322723388671875,0.8893585205078125,-0.724517822265625
2024-06-20T17:51:21.539+02:00,4341.783182916667,0.0390167236328125,0.89593505859375,-0.722412109375
2024-06-20T17:51:21.549+02:00,4341.793240916667,0.0182342529296875,0.924530029296875,-0.779937744140625
2024-06-20T17:51:21.559+02:00,4341.803297916667,0.0067291259765625,0.90826416015625,-0.776214599609375
2024-06-20T17:51:21.569+02:00,4341.813355916667,-0.0230865478515625,0.885498046875,-0.8089141845703125
2024-06-20T17:51:21.580+02:00,4341.823412916667,-0.0193023681640625,0.8498077392578125,-0.743743896484375
2024-06-20T17:51:21.590+02:00,4341.833470916667,-0.0240325927734375,0.860107421875,-0.6996307373046875
2024-06-20T17:51:21.600+02:00,4341.843527916667,-0.02825927734375,0.9013519287109375,-0.6998291015625
2024-06-20T17:51:21.610+02:00,4341.853585916667,-0.0165252685546875,0.9640350341796875,-0.7071075439453125
2024-06-20T17:51:21.620+02:00,4341.863642916667,-0.029052734375,1.021896362304688,-0.6827239990234375
2024-06-20T17:51:21.630+02:00,4341.873700916667,-0.0493621826171875,1.07208251953125,-0.686553955078125
2024-06-20T17:51:21.640+02:00,4341.883757916667,-0.056549072265625,1.024795532226562,-0.738067626953125
2024-06-20T17:51:21.650+02:00,4341.893815916667,-0.0606231689453125,0.9126739501953125,-0.80047607421875
2024-06-20T17:51:21.660+02:00,4341.903872916667,-0.0678558349609375,0.8586273193359375,-0.784423828125
2024-06-20T17:51:21.670+02:00,4341.913929916667,-0.084228515625,0.8279266357421875,-0.6894989013671875
2024-06-20T17:51:21.680+02:00,4341.923987916667,-0.1238555908203125,0.822998046875,-0.635589599609375
2024-06-20T17:51:21.690+02:00,4341.934044916667,-0.15869140625,0.8409576416015625,-0.60809326171875
2024-06-20T17:51:21.700+02:00,4341.944102916667,-0.1688690185546875,0.863037109375,-0.57965087890625
2024-06-20T17:51:21.710+02:00,4341.954159916667,-0.169769287109375,0.8813323974609375,-0.5894775390625
2024-06-20T17:51:21.720+02:00,4341.964217916667,-0.1614990234375,0.8672027587890625,-0.5830535888671875
2024-06-20T17:51:21.730+02:00,4341.974274916667,-0.1538238525390625,0.8562469482421875,-0.551513671875
2024-06-20T17:51:21.740+02:00,4341.984332916667,-0.169952392578125,0.8598480224609375,-0.5402069091796875
2024-06-20T17:51:21.750+02:00,4341.994389916666,-0.1943511962890625,0.860443115234375,-0.56719970703125
2024-06-20T17:51:21.761+02:00,4342.004447916667,-0.22784423828125,0.889007568359375,-0.586639404296875
2024-06-20T17:51:21.771+02:00,4342.014504916667,-0.2433319091796875,0.8768157958984375,-0.60345458984375
2024-06-20T17:51:21.781+02:00,4342.024562916667,-0.2255859375,0.8373565673828125,-0.647857666015625
2024-06-20T17:51:21.791+02:00,4342.034619916667,-0.197906494140625,0.7890625,-0.584381103515625
2024-06-20T17:51:21.801+02:00,4342.044677916667,-0.208038330078125,0.796600341796875,-0.507568359375
2024-06-20T17:51:21.811+02:00,4342.054734916667,-0.2426605224609375,0.7968902587890625,-0.4976806640625
2024-06-20T17:51:21.821+02:00,4342.064791916667,-0.2702178955078125,0.7984771728515625,-0.4754638671875
2024-06-20T17:51:21.831+02:00,4342.074849916667,-0.3297271728515625,0.8519287109375,-0.4502716064453125
2024-06-20T17:51:21.841+02:00,4342.084906916667,-0.4163055419921875,0.88470458984375,-0.3807220458984375
2024-06-20T17:51:21.851+02:00,4342.094963375001,-0.522674560546875,0.9052734375,-0.382171630859375
2024-06-20T17:51:21.861+02:00,4342.105020375,-0.6056060791015625,0.886627197265625,-0.419403076171875
2024-06-20T17:51:21.871+02:00,4342.115078375,-0.6471710205078125,0.770294189453125,-0.5116119384765625
2024-06-20T17:51:21.881+02:00,4342.125135375,-0.6227569580078125,0.645477294921875,-0.55218505859375
2024-06-20T17:51:21.891+02:00,4342.135193375,-0.5820159912109375,0.632354736328125,-0.54058837890625
2024-06-20T17:51:21.901+02:00,4342.145250375001,-0.546966552734375,0.69952392578125,-0.5622406005859375
2024-06-20T17:51:21.911+02:00,4342.155308375,-0.490966796875,0.73358154296875,-0.5970611572265625
2024-06-20T17:51:21.921+02:00,4342.165365375,-0.3996429443359375,0.7698974609375,-0.6115875244140625
2024-06-20T17:51:21.932+02:00,4342.175423375,-0.3084716796875,0.8184661865234375,-0.5811614990234375
2024-06-20T17:51:21.942+02:00,4342.185480375,-0.2607879638671875,0.84912109375,-0.549896240234375
2024-06-20T17:51:21.952+02:00,4342.195538375,-0.2603912353515625,0.8465576171875,-0.588226318359375
2024-06-20T17:51:21.962+02:00,4342.205595375,-0.308349609375,0.8247528076171875,-0.6212005615234375
2024-06-20T17:51:21.972+02:00,4342.215653375,-0.423583984375,0.7944793701171875,-0.656890869140625
2024-06-20T17:51:21.982+02:00,4342.225710375,-0.5805511474609375,0.7869720458984375,-0.67901611328125
2024-06-20T17:51:21.992+02:00,4342.235767375,-0.73675537109375,0.8079833984375,-0.608367919921875
2024-06-20T17:51:22.002+02:00,4342.245825375,-0.874969482421875,0.8315277099609375,-0.493133544921875
2024-06-20T17:51:22.012+02:00,4342.255882375001,-0.97003173828125,0.761505126953125,-0.431671142578125
2024-06-20T17:51:22.022+02:00,4342.265940375,-0.973419189453125,0.670501708984375,-0.362823486328125
2024-06-20T17:51:22.032+02:00,4342.275997375,-0.935943603515625,0.5912017822265625,-0.30743408203125
2024-06-20T17:51:22.042+02:00,4342.286055375001,-0.907623291015625,0.5075531005859375,-0.296905517578125
2024-06-20T17:51:22.052+02:00,4342.296112375,-0.8608551025390625,0.4233856201171875,-0.305206298828125
2024-06-20T17:51:22.062+02:00,4342.306170375,-0.846099853515625,0.331298828125,-0.3610076904296875
2024-06-20T17:51:22.072+02:00,4342.316227375,-0.842437744140625,0.4776153564453125,-0.15960693359375
2024-06-20T17:51:22.082+02:00,4342.326285375,-0.964141845703125,0.6998443603515625,-0.21044921875
2024-06-20T17:51:22.092+02:00,4342.336342375001,-0.9891510009765625,0.6175384521484375,-0.3603057861328125
2024-06-20T17:51:22.102+02:00,4342.346400375,-0.9700927734375,0.6917266845703125,-0.2236175537109375
2024-06-20T17:51:22.113+02:00,4342.356457375,-1.077407836914062,0.72589111328125,-0.1142578125
2024-06-20T17:51:22.123+02:00,4342.366514375,-1.1124267578125,0.6417236328125,-0.1279449462890625
2024-06-20T17:51:22.133+02:00,4342.376572375,-1.068435668945312,0.660736083984375,-0.1454315185546875
2024-06-20T17:51:22.143+02:00,4342.386629375001,-1.032455444335938,0.6455230712890625,-0.1619110107421875
2024-06-20T17:51:22.153+02:00,4342.396687375001,-0.99365234375,0.65838623046875,-0.1461639404296875
2024-06-20T17:51:22.163+02:00,4342.406744375,-0.961273193359375,0.745574951171875,-0.102081298828125
2024-06-20T17:51:22.173+02:00,4342.416802375,-0.914154052734375,0.7729034423828125,-0.0718231201171875
2024-06-20T17:51:22.183+02:00,4342.426859375,-0.8536224365234375,0.7223358154296875,-0.02886962890625
2024-06-20T17:51:22.193+02:00,4342.436917375,-0.82257080078125,0.6756591796875,0.0289459228515625
2024-06-20T17:51:22.203+02:00,4342.446974375001,-0.8282470703125,0.7353515625,0.096466064453125
2024-06-20T17:51:22.213+02:00,4342.457032375,-0.794097900390625,0.7774810791015625,0.0928802490234375
2024-06-20T17:51:22.223+02:00,4342.467089375,-0.67767333984375,0.72412109375,0.0200347900390625
2024-06-20T17:51:22.233+02:00,4342.477147375001,-0.546051025390625,0.706451416015625,0.033355712890625
2024-06-20T17:51:22.243+02:00,4342.487204375,-0.4996795654296875,0.7212371826171875,0.0986328125
2024-06-20T17:51:22.253+02:00,4342.497262375,-0.5088043212890625,0.7671356201171875,0.1581573486328125
2024-06-20T17:51:22.264+02:00,4342.507319375,-0.5043487548828125,0.8946990966796875,0.2129058837890625
2024-06-20T17:51:22.273+02:00,4342.517377375,-0.4801483154296875,1.1495361328125,0.2524566650390625
2024-06-20T17:51:22.284+02:00,4342.527434375001,-0.4692230224609375,1.442245483398438,0.2493896484375
2024-06-20T17:51:22.293+02:00,4342.537491375,-0.3815155029296875,1.488693237304688,0.175323486328125
2024-06-20T17:51:22.304+02:00,4342.547549375,-0.25274658203125,1.381423950195312,0.154296875
2024-06-20T17:51:22.314+02:00,4342.557606375,-0.217987060546875,1.349227905273438,0.2657928466796875
2024-06-20T17:51:22.324+02:00,4342.567664375,-0.2817840576171875,1.47021484375,0.3777008056640625
2024-06-20T17:51:22.334+02:00,4342.577721375001,-0.3536224365234375,1.726943969726562,0.36639404296875
2024-06-20T17:51:22.344+02:00,4342.587779375001,-0.3062896728515625,1.845596313476562,0.2824554443359375
2024-06-20T17:51:22.354+02:00,4342.597836375,-0.158355712890625,1.827545166015625,0.2169952392578125
2024-06-20T17:51:22.364+02:00,4342.607894375,-0.0412139892578125,1.735092163085938,0.2293701171875
2024-06-20T17:51:22.374+02:00,4342.617951375,0.0039215087890625,1.714767456054688,0.340606689453125
2024-06-20T17:51:22.384+02:00,4342.628009375,0.0218658447265625,1.735504150390625,0.4220123291015625
2024-06-20T17:51:22.394+02:00,4342.638066375001,0.0434722900390625,1.737457275390625,0.48388671875
2024-06-20T17:51:22.404+02:00,4342.648124375,0.07220458984375,1.77423095703125,0.4945831298828125
2024-06-20T17:51:22.414+02:00,4342.658181375,0.1146392822265625,1.781387329101562,0.4660186767578125
2024-06-20T17:51:22.424+02:00,4342.668239375001,0.1997528076171875,1.807388305664062,0.401275634765625
2024-06-20T17:51:22.434+02:00,4342.678296375,0.2822723388671875,1.999664306640625,0.43017578125
2024-06-20T17:51:22.444+02:00,4342.688353375001,0.23272705078125,2.26025390625,0.45477294921875
2024-06-20T17:51:22.455+02:00,4342.698411375,0.0824127197265625,2.399826049804688,0.41424560546875
2024-06-20T17:51:22.465+02:00,4342.708468375,-0.0435333251953125,2.307785034179688,0.3843231201171875
2024-06-20T17:51:22.475+02:00,4342.718526375001,-0.0975799560546875,2.134063720703125,0.4127349853515625
2024-06-20T17:51:22.485+02:00,4342.728583375,-0.0953216552734375,1.983596801757812,0.40966796875
2024-06-20T17:51:22.495+02:00,4342.738641375,-0.078704833984375,1.972518920898438,0.3943328857421875
2024-06-20T17:51:22.505+02:00,4342.748698375,-0.05523681640625,2.083969116210938,0.3712005615234375
2024-06-20T17:51:22.515+02:00,4342.758756375,-0.030731201171875,2.202865600585938,0.320709228515625
2024-06-20T17:51:22.525+02:00,4342.768813375,-0.0528564453125,2.315399169921875,0.294097900390625
2024-06-20T17:51:22.535+02:00,4342.778871375001,-0.1082611083984375,2.359115600585938,0.24151611328125
2024-06-20T17:51:22.545+02:00,4342.788928375,-0.1544952392578125,2.409042358398438,0.3012237548828125
2024-06-20T17:51:22.555+02:00,4342.798986375,-0.214599609375,2.455902099609375,0.305694580078125
2024-06-20T17:51:22.565+02:00,4342.809043375,-0.2292633056640625,2.601181030273438,0.359588623046875
2024-06-20T17:51:22.575+02:00,4342.819101375,-0.222137451171875,2.811508178710938,0.4066009521484375
2024-06-20T17:51:22.585+02:00,4342.829158375001,-0.239471435546875,2.940353393554688,0.3168792724609375
2024-06-20T17:51:22.595+02:00,4342.839216375,-0.3031158447265625,2.94354248046875,0.232940673828125
2024-06-20T17:51:22.605+02:00,4342.849273375,-0.383392333984375,2.871322631835938,0.0821075439453125
2024-06-20T17:51:22.615+02:00,4342.859330375,-0.4630584716796875,2.858322143554688,0.0196685791015625
2024-06-20T17:51:22.626+02:00,4342.869388375,-0.6329193115234375,2.771240234375,-0.0317840576171875
2024-06-20T17:51:22.636+02:00,4342.879445375001,-0.78948974609375,2.33984375,-0.1157684326171875
2024-06-20T17:51:22.646+02:00,4342.889503375,-0.9925079345703125,2.733535766601562,-0.40966796875
2024-06-20T17:51:22.656+02:00,4342.899560375,-1.098388671875,2.65606689453125,-0.4011383056640625
2024-06-20T17:51:22.666+02:00,4342.909618375,-1.220230102539062,2.245391845703125,-0.2745819091796875
2024-06-20T17:51:22.676+02:00,4342.919675375,-1.268798828125,1.868499755859375,-0.455078125
2024-06-20T17:51:22.686+02:00,4342.929733375,-1.249984741210938,1.635009765625,-0.6071929931640625
2024-06-20T17:51:22.696+02:00,4342.939790375,-1.097137451171875,1.389511108398438,-0.7771453857421875
2024-06-20T17:51:22.706+02:00,4342.949848375,-0.949981689453125,1.173233032226562,-0.8023529052734375
2024-06-20T17:51:22.716+02:00,4342.959905375,-0.8826141357421875,0.9803619384765625,-0.8364410400390625
2024-06-20T17:51:22.726+02:00,4342.969963375001,-0.837249755859375,0.8618011474609375,-0.7956390380859375
2024-06-20T17:51:22.736+02:00,4342.980020375,-0.73828125,0.8269195556640625,-0.6628875732421875
2024-06-20T17:51:22.746+02:00,4342.990078375,-0.6441802978515625,0.895782470703125,-0.505615234375
2024-06-20T17:51:22.756+02:00,4343.000135375,-0.6659698486328125,0.8659210205078125,-0.4416656494140625
2024-06-20T17:51:22.766+02:00,4343.010192375,-0.75518798828125,0.74810791015625,-0.444061279296875
2024-06-20T17:51:22.776+02:00,4343.020250375001,-0.7896881103515625,0.5970306396484375,-0.424072265625
2024-06-20T17:51:22.786+02:00,4343.030307375,-0.7359771728515625,0.443206787109375,-0.4059295654296875
2024-06-20T17:51:22.796+02:00,4343.040365375,-0.659027099609375,0.415985107421875,-0.3776702880859375
2024-06-20T17:51:22.807+02:00,4343.050422375,-0.5858612060546875,0.437469482421875,-0.3962249755859375
2024-06-20T17:51:22.817+02:00,4343.060480375,-0.5459442138671875,0.4085540771484375,-0.455169677734375
2024-06-20T17:51:22.827+02:00,4343.070537375001,-0.5397186279296875,0.2882537841796875,-0.450775146484375
2024-06-20T17:51:22.837+02:00,4343.080595375,-0.5285797119140625,0.1292266845703125,-0.343170166015625
2024-06-20T17:51:22.847+02:00,4343.090652375,-0.5062408447265625,-0.0018768310546875,-0.1875457763671875
2024-06-20T17:51:22.857+02:00,4343.10071125,-0.500640869140625,-0.0059814453125,-0.099456787109375
2024-06-20T17:51:22.867+02:00,4343.110768250001,-0.50689697265625,0.007720947265625,-0.131134033203125
2024-06-20T17:51:22.877+02:00,4343.12082625,-0.4909820556640625,0.0148162841796875,-0.1385955810546875
2024-06-20T17:51:22.887+02:00,4343.13088325,-0.448699951171875,0.0108642578125,-0.1906280517578125
2024-06-20T17:51:22.897+02:00,4343.140941250001,-0.427825927734375,-0.0740509033203125,-0.2750244140625
2024-06-20T17:51:22.907+02:00,4343.15099825,-0.4169158935546875,-0.152801513671875,-0.3159637451171875
2024-06-20T17:51:22.917+02:00,4343.161055250001,-0.4061431884765625,-0.2082366943359375,-0.3332366943359375
2024-06-20T17:51:22.927+02:00,4343.17111325,-0.3665008544921875,-0.23284912109375,-0.2855682373046875
2024-06-20T17:51:22.937+02:00,4343.18117025,-0.310302734375,-0.23663330078125,-0.231842041015625
2024-06-20T17:51:22.947+02:00,4343.191228250001,-0.2565155029296875,-0.29132080078125,-0.2032928466796875
2024-06-20T17:51:22.957+02:00,4343.20128525,-0.2272491455078125,-0.345916748046875,-0.1445465087890625
2024-06-20T17:51:22.968+02:00,4343.21134325,-0.2142181396484375,-0.34332275390625,-0.0893707275390625
2024-06-20T17:51:22.978+02:00,4343.22140025,-0.2047576904296875,-0.3202056884765625,-0.0924530029296875
2024-06-20T17:51:22.988+02:00,4343.23145825,-0.193206787109375,-0.3077850341796875,-0.1384735107421875
2024-06-20T17:51:22.998+02:00,4343.241515250001,-0.1663970947265625,-0.266998291015625,-0.15924072265625
2024-06-20T17:51:23.008+02:00,4343.251573250001,-0.1383209228515625,-0.204742431640625,-0.229217529296875
2024-06-20T17:51:23.018+02:00,4343.26163025,-0.1214752197265625,-0.17620849609375,-0.322418212890625
2024-06-20T17:51:23.028+02:00,4343.27168825,-0.1163787841796875,-0.1621551513671875,-0.328460693359375
2024-06-20T17:51:23.038+02:00,4343.28174525,-0.1224822998046875,-0.182708740234375,-0.3239593505859375
2024-06-20T17:51:23.048+02:00,4343.29180325,-0.1102294921875,-0.1881561279296875,-0.2931671142578125
2024-06-20T17:51:23.058+02:00,4343.301860250001,-0.0870208740234375,-0.115203857421875,-0.2739715576171875
2024-06-20T17:51:23.068+02:00,4343.31191725,-0.0691070556640625,-0.0557403564453125,-0.2987823486328125
2024-06-20T17:51:23.078+02:00,4343.32197525,-0.0622406005859375,-0.030517578125,-0.3560943603515625
2024-06-20T17:51:23.088+02:00,4343.33203225,-0.0653533935546875,0.0614776611328125,-0.3875885009765625
2024-06-20T17:51:23.098+02:00,4343.34209025,-0.0877227783203125,0.210174560546875,-0.4082794189453125
2024-06-20T17:51:23.108+02:00,4343.352147250001,-0.1421966552734375,0.3498382568359375,-0.5035400390625
2024-06-20T17:51:23.118+02:00,4343.36220525,-0.182525634765625,0.47637939453125,-0.638275146484375
2024-06-20T17:51:23.128+02:00,4343.37226225,-0.1663665771484375,0.5931854248046875,-0.7007293701171875
2024-06-20T17:51:23.138+02:00,4343.382320250001,-0.149261474609375,0.662811279296875,-0.8559722900390625
2024-06-20T17:51:23.148+02:00,4343.39237725,-0.10968017578125,0.6487579345703125,-1.078628540039062
2024-06-20T17:51:23.159+02:00,4343.40243525,-0.0521697998046875,0.6458282470703125,-1.186141967773438
2024-06-20T17:51:23.169+02:00,4343.41249225,-0.035308837890625,0.6782989501953125,-1.15411376953125
2024-06-20T17:51:23.179+02:00,4343.42255025,-0.041168212890625,0.7022705078125,-1.16302490234375
2024-06-20T17:51:23.189+02:00,4343.43260725,-0.0171661376953125,0.82513427734375,-1.109222412109375
2024-06-20T17:51:23.199+02:00,4343.442665250001,0.00140380859375,1.054916381835938,-1.104705810546875
2024-06-20T17:51:23.209+02:00,4343.45272225,-0.0001373291015625,1.231613159179688,-1.270538330078125
2024-06-20T17:51:23.219+02:00,4343.46278025,0.0285797119140625,1.300384521484375,-1.4530029296875
2024-06-20T17:51:23.229+02:00,4343.47283725,0.0960540771484375,1.33544921875,-1.43377685546875
2024-06-20T17:51:23.239+02:00,4343.48289425,0.1301116943359375,1.3294677734375,-1.353851318359375
2024-06-20T17:51:23.249+02:00,4343.492952250001,0.127716064453125,1.292312622070312,-1.28289794921875
2024-06-20T17:51:23.259+02:00,4343.50300925,0.1267242431640625,1.270278930664062,-1.150680541992188
2024-06-20T17:51:23.269+02:00,4343.51306725,0.117828369140625,1.328201293945312,-1.019500732421875
2024-06-20T17:51:23.279+02:00,4343.52312425,0.096923828125,1.447540283203125,-0.9948883056640625
2024-06-20T17:51:23.289+02:00,4343.53318225,0.1021575927734375,1.51318359375,-1.030120849609375
2024-06-20T17:51:23.299+02:00,4343.543239250001,0.1372528076171875,1.493804931640625,-1.108535766601562
2024-06-20T17:51:23.309+02:00,4343.55329725,0.176910400390625,1.409591674804688,-1.150741577148438
2024-06-20T17:51:23.319+02:00,4343.56335425,0.15240478515625,1.316268920898438,-1.118453979492188
2024-06-20T17:51:23.330+02:00,4343.57341225,0.087249755859375,1.257080078125,-1.071563720703125
2024-06-20T17:51:23.339+02:00,4343.58346925,0.0487823486328125,1.287445068359375,-1.012191772460938
2024-06-20T17:51:23.350+02:00,4343.59352725,0.036773681640625,1.368789672851562,-0.973724365234375
2024-06-20T17:51:23.360+02:00,4343.60358425,0.0496063232421875,1.412811279296875,-0.920745849609375
2024-06-20T17:51:23.370+02:00,4343.61364225,0.0777130126953125,1.35174560546875,-0.835052490234375
2024-06-20T17:51:23.380+02:00,4343.62369925,0.085662841796875,1.200607299804688,-0.7428741455078125
2024-06-20T17:51:23.390+02:00,4343.63375625,0.0667266845703125,1.068511962890625,-0.63299560546875
2024-06-20T17:51:23.400+02:00,4343.64381425,0.0426788330078125,0.97430419921875,-0.53314208984375
2024-06-20T17:51:23.410+02:00,4343.653871250001,0.04705810546875,0.9943695068359375,-0.4607391357421875
2024-06-20T17:51:23.420+02:00,4343.66392925,0.0591278076171875,1.078536987304688,-0.4425811767578125
2024-06-20T17:51:23.430+02:00,4343.67398625,0.0679473876953125,1.087539672851562,-0.491668701171875
2024-06-20T17:51:23.440+02:00,4343.684044250001,0.090667724609375,1.086318969726562,-0.509735107421875
2024-06-20T17:51:23.450+02:00,4343.69410125,0.10504150390625,1.075531005859375,-0.5105743408203125
2024-06-20T17:51:23.460+02:00,4343.70415925,0.1172332763671875,1.035232543945312,-0.526702880859375
2024-06-20T17:51:23.470+02:00,4343.71421625,0.118896484375,1.018417358398438,-0.52032470703125
2024-06-20T17:51:23.480+02:00,4343.72427425,0.102752685546875,1.025848388671875,-0.509246826171875
2024-06-20T17:51:23.490+02:00,4343.734331250001,0.0809173583984375,1.054443359375,-0.499298095703125
2024-06-20T17:51:23.500+02:00,4343.74438925,0.0770263671875,1.0887451171875,-0.476226806640625
2024-06-20T17:51:23.511+02:00,4343.75444625,0.0835418701171875,1.129745483398438,-0.454498291015625
2024-06-20T17:51:23.521+02:00,4343.76450425,0.09356689453125,1.155166625976562,-0.4226531982421875
2024-06-20T17:51:23.531+02:00,4343.77456125,0.105987548828125,1.14935302734375,-0.387542724609375
2024-06-20T17:51:23.541+02:00,4343.784618250001,0.1129608154296875,1.128677368164062,-0.365020751953125
2024-06-20T17:51:23.551+02:00,4343.794676250001,0.1134185791015625,1.092208862304688,-0.346954345703125
2024-06-20T17:51:23.561+02:00,4343.80473325,0.1027069091796875,1.047561645507812,-0.33184814453125
2024-06-20T17:51:23.571+02:00,4343.81479125,0.09356689453125,1.007965087890625,-0.301788330078125
2024-06-20T17:51:23.581+02:00,4343.82484825,0.0834197998046875,0.98919677734375,-0.2818450927734375
2024-06-20T17:51:23.591+02:00,4343.83490625,0.0872344970703125,0.987091064453125,-0.2602996826171875
2024-06-20T17:51:23.601+02:00,4343.844963250001,0.0980377197265625,1.007614135742188,-0.2486572265625
2024-06-20T17:51:23.611+02:00,4343.85502125,0.1041412353515625,1.038955688476562,-0.2386627197265625
2024-06-20T17:51:23.621+02:00,4343.86507825,0.1093597412109375,1.087860107421875,-0.2269287109375
2024-06-20T17:51:23.631+02:00,4343.875136250001,0.107574462890625,1.1304931640625,-0.2434234619140625
2024-06-20T17:51:23.641+02:00,4343.88519325,0.1041259765625,1.159515380859375,-0.29473876953125
2024-06-20T17:51:23.651+02:00,4343.89525125,0.09765625,1.174285888671875,-0.3380279541015625
2024-06-20T17:51:23.661+02:00,4343.90530825,0.0821075439453125,1.14990234375,-0.3604888916015625
2024-06-20T17:51:23.671+02:00,4343.91536625,0.0429840087890625,1.125732421875,-0.34539794921875
2024-06-20T17:51:23.681+02:00,4343.925423250001,-0.0273590087890625,1.091629028320312,-0.311798095703125
2024-06-20T17:51:23.692+02:00,4343.93548025,-0.094451904296875,1.026565551757812,-0.2551116943359375
2024-06-20T17:51:23.702+02:00,4343.94553825,-0.1516265869140625,0.9799041748046875,-0.2108612060546875
2024-06-20T17:51:23.712+02:00,4343.95559525,-0.1746368408203125,0.9564666748046875,-0.167755126953125
2024-06-20T17:51:23.722+02:00,4343.96565325,-0.161651611328125,0.9754180908203125,-0.083160400390625
2024-06-20T17:51:23.732+02:00,4343.975710250001,-0.185089111328125,0.9932098388671875,-0.0951995849609375
2024-06-20T17:51:23.742+02:00,4343.985768250001,-0.224273681640625,0.9704742431640625,-0.2267303466796875
2024-06-20T17:51:23.752+02:00,4343.99582525,-0.2721099853515625,0.95611572265625,-0.317840576171875
2024-06-20T17:51:23.762+02:00,4344.00588325,-0.360504150390625,0.91748046875,-0.358612060546875
2024-06-20T17:51:23.772+02:00,4344.01594025,-0.459442138671875,0.874420166015625,-0.3101348876953125
2024-06-20T17:51:23.782+02:00,4344.02599825,-0.5836181640625,0.8277740478515625,-0.3427276611328125
2024-06-20T17:51:23.792+02:00,4344.036055250001,-0.6970672607421875,0.7913818359375,-0.2803497314453125
2024-06-20T17:51:23.802+02:00,4344.04611325,-0.85357666015625,0.8737335205078125,-0.3191070556640625
2024-06-20T17:51:23.812+02:00,4344.05617025,-0.898193359375,1.209213256835938,-0.038421630859375
2024-06-20T17:51:23.822+02:00,4344.066228250001,-0.900238037109375,1.44024658203125,0.0802001953125
2024-06-20T17:51:23.832+02:00,4344.07628525,-0.83404541015625,1.365524291992188,-0.0304412841796875
2024-06-20T17:51:23.842+02:00,4344.08634325,-0.737274169921875,1.334869384765625,-0.0859832763671875
2024-06-20T17:51:23.853+02:00,4344.096399666667,-0.6853790283203125,1.305450439453125,-0.136383056640625
2024-06-20T17:51:23.863+02:00,4344.106456666667,-0.6558074951171875,1.19378662109375,-0.1779022216796875
2024-06-20T17:51:23.873+02:00,4344.116514666667,-0.6391448974609375,1.038619995117188,-0.2379150390625
2024-06-20T17:51:23.883+02:00,4344.126571666667,-0.6067352294921875,0.9141998291015625,-0.3104400634765625
2024-06-20T17:51:23.893+02:00,4344.136629666667,-0.53997802734375,0.8353729248046875,-0.3787841796875
2024-06-20T17:51:23.903+02:00,4344.146686666667,-0.477691650390625,0.834808349609375,-0.3368682861328125
2024-06-20T17:51:23.913+02:00,4344.156744666667,-0.4742279052734375,0.901153564453125,-0.28680419921875
2024-06-20T17:51:23.923+02:00,4344.166801666667,-0.495758056640625,1.039779663085938,-0.1998443603515625
2024-06-20T17:51:23.933+02:00,4344.176859666667,-0.522216796875,1.143051147460938,-0.1926422119140625
2024-06-20T17:51:23.943+02:00,4344.186916666667,-0.5041351318359375,1.178421020507812,-0.2232666015625
2024-06-20T17:51:23.953+02:00,4344.196974666667,-0.47216796875,1.160980224609375,-0.2408905029296875
2024-06-20T17:51:23.963+02:00,4344.207031666667,-0.4626312255859375,1.0892333984375,-0.252838134765625
2024-06-20T17:51:23.973+02:00,4344.217089666667,-0.495452880859375,1.021621704101562,-0.271331787109375
2024-06-20T17:51:23.983+02:00,4344.227146666667,-0.5355682373046875,0.94134521484375,-0.2590179443359375
2024-06-20T17:51:23.993+02:00,4344.237204666667,-0.5823974609375,0.8917236328125,-0.212615966796875
2024-06-20T17:51:24.003+02:00,4344.247261666667,-0.623687744140625,0.89501953125,-0.14666748046875
2024-06-20T17:51:24.013+02:00,4344.257318666667,-0.6441650390625,0.87969970703125,-0.106231689453125
2024-06-20T17:51:24.023+02:00,4344.267376666667,-0.6327667236328125,0.865692138671875,-0.087432861328125
2024-06-20T17:51:24.034+02:00,4344.277433666667,-0.605010986328125,0.8624114990234375,-0.0408172607421875
2024-06-20T17:51:24.044+02:00,4344.287491666667,-0.59417724609375,0.8312835693359375,-0.021759033203125
2024-06-20T17:51:24.054+02:00,4344.297548666667,-0.5933837890625,0.8176116943359375,-0.0403594970703125
2024-06-20T17:51:24.064+02:00,4344.307606666667,-0.598968505859375,0.79425048828125,-0.1211700439453125
2024-06-20T17:51:24.074+02:00,4344.317663666667,-0.5895233154296875,0.6940765380859375,-0.19549560546875
2024-06-20T17:51:24.084+02:00,4344.327721666667,-0.583648681640625,0.60552978515625,-0.22772216796875
2024-06-20T17:51:24.094+02:00,4344.337778666667,-0.580657958984375,0.538177490234375,-0.2488250732421875
2024-06-20T17:51:24.104+02:00,4344.347836666667,-0.5656280517578125,0.4724884033203125,-0.27154541015625
2024-06-20T17:51:24.114+02:00,4344.357893666667,-0.542572021484375,0.43267822265625,-0.2403411865234375
2024-06-20T17:51:24.124+02:00,4344.367951666667,-0.512939453125,0.4787445068359375,-0.215362548828125
2024-06-20T17:51:24.134+02:00,4344.378008666667,-0.465850830078125,0.6070404052734375,-0.216094970703125
2024-06-20T17:51:24.144+02:00,4344.388066666667,-0.402252197265625,0.721435546875,-0.2421112060546875
2024-06-20T17:51:24.154+02:00,4344.398123666667,-0.3187255859375,0.805267333984375,-0.2693939208984375
2024-06-20T17:51:24.164+02:00,4344.408181666667,-0.2251129150390625,0.84197998046875,-0.308837890625
2024-06-20T17:51:24.174+02:00,4344.418238666667,-0.1539306640625,0.8047332763671875,-0.3231658935546875
2024-06-20T17:51:24.184+02:00,4344.428295666667,-0.108612060546875,0.645843505859375,-0.3343353271484375
2024-06-20T17:51:24.194+02:00,4344.438353666667,-0.0961761474609375,0.48065185546875,-0.3025970458984375
2024-06-20T17:51:24.204+02:00,4344.448410666667,-0.135894775390625,0.446807861328125,-0.238250732421875
2024-06-20T17:51:24.215+02:00,4344.458468666667,-0.227020263671875,0.4822235107421875,-0.2071533203125
2024-06-20T17:51:24.225+02:00,4344.468525666667,-0.29998779296875,0.5935211181640625,-0.1676025390625
2024-06-20T17:51:24.235+02:00,4344.478583666667,-0.3088836669921875,0.779266357421875,-0.167449951171875
2024-06-20T17:51:24.245+02:00,4344.488640666667,-0.2503204345703125,0.95904541015625,-0.20867919921875
2024-06-20T17:51:24.255+02:00,4344.498698666667,-0.1626434326171875,1.012420654296875,-0.292022705078125
2024-06-20T17:51:24.265+02:00,4344.508755666667,-0.0792388916015625,0.9761505126953125,-0.268402099609375
2024-06-20T17:51:24.275+02:00,4344.518813666667,-0.04461669921875,0.860107421875,-0.1729583740234375
2024-06-20T17:51:24.285+02:00,4344.528870666667,-0.0604705810546875,0.6876678466796875,-0.107391357421875
2024-06-20T17:51:24.295+02:00,4344.538928666667,-0.1065826416015625,0.7416229248046875,0.0101776123046875
2024-06-20T17:51:24.305+02:00,4344.548985666667,-0.1724090576171875,0.979461669921875,0.11102294921875
2024-06-20T17:51:24.315+02:00,4344.559043666667,-0.1849822998046875,1.168182373046875,0.03741455078125
2024-06-20T17:51:24.325+02:00,4344.569100666667,-0.1055755615234375,1.260299682617188,-0.0852203369140625
2024-06-20T17:51:24.335+02:00,4344.579157666667,0.0091094970703125,1.177276611328125,-0.1785736083984375
2024-06-20T17:51:24.345+02:00,4344.589215666667,0.096527099609375,1.010574340820312,-0.1834869384765625
2024-06-20T17:51:24.355+02:00,4344.599272666667,0.109771728515625,0.8768310546875,-0.0714874267578125
2024-06-20T17:51:24.365+02:00,4344.609330666667,0.0800018310546875,0.7860565185546875,0.1007232666015625
2024-06-20T17:51:24.375+02:00,4344.619387666667,0.0495758056640625,0.8889923095703125,0.320098876953125
2024-06-20T17:51:24.386+02:00,4344.629445666667,-0.0222930908203125,1.143310546875,0.384429931640625
2024-06-20T17:51:24.396+02:00,4344.639502666667,-0.0770263671875,1.210357666015625,0.2082366943359375
2024-06-20T17:51:24.406+02:00,4344.649560666667,-0.0801239013671875,1.132781982421875,0.114776611328125
2024-06-20T17:51:24.416+02:00,4344.659617666667,-0.083648681640625,1.0030517578125,0.11517333984375
2024-06-20T17:51:24.426+02:00,4344.669675666667,-0.1077880859375,0.8844757080078125,0.0960235595703125
2024-06-20T17:51:24.436+02:00,4344.679732666666,-0.1402435302734375,0.8602752685546875,0.068695068359375
2024-06-20T17:51:24.446+02:00,4344.689790666667,-0.13653564453125,0.9880523681640625,0.1657562255859375
2024-06-20T17:51:24.456+02:00,4344.699847666667,-0.1378631591796875,1.220565795898438,0.3241729736328125
2024-06-20T17:51:24.466+02:00,4344.709905666667,-0.1722412109375,1.321319580078125,0.38677978515625
2024-06-20T17:51:24.476+02:00,4344.719962666667,-0.221466064453125,1.22344970703125,0.38018798828125
2024-06-20T17:51:24.486+02:00,4344.730020666667,-0.25006103515625,0.987060546875,0.41375732421875
2024-06-20T17:51:24.496+02:00,4344.740077666667,-0.284698486328125,0.8214111328125,0.4946746826171875
2024-06-20T17:51:24.506+02:00,4344.750134666667,-0.35504150390625,0.7755279541015625,0.51678466796875
2024-06-20T17:51:24.516+02:00,4344.760192666667,-0.5056915283203125,0.8506011962890625,0.397857666015625
2024-06-20T17:51:24.526+02:00,4344.770249666667,-0.774139404296875,1.018051147460938,0.146087646484375
2024-06-20T17:51:24.536+02:00,4344.780307666667,-1.053787231445312,1.204147338867188,-0.05950927734375
2024-06-20T17:51:24.546+02:00,4344.790364666667,-1.219955444335938,1.330612182617188,-0.148040771484375
2024-06-20T17:51:24.557+02:00,4344.800422666667,-1.255950927734375,1.356033325195312,-0.18267822265625
2024-06-20T17:51:24.567+02:00,4344.810479666667,-1.272659301757812,1.256027221679688,-0.22381591796875
2024-06-20T17:51:24.577+02:00,4344.820537666666,-1.339340209960938,1.146347045898438,-0.19720458984375
2024-06-20T17:51:24.587+02:00,4344.830594666667,-1.468597412109375,1.101211547851562,-0.19500732421875
2024-06-20T17:51:24.597+02:00,4344.840652666667,-1.598114013671875,1.111679077148438,-0.2810211181640625
2024-06-20T17:51:24.607+02:00,4344.850709666667,-1.649078369140625,1.240432739257812,-0.4578094482421875
2024-06-20T17:51:24.617+02:00,4344.860767666667,-1.564132690429688,1.3350830078125,-0.7193145751953125
2024-06-20T17:51:24.627+02:00,4344.870824666667,-1.341888427734375,1.437820434570312,-0.8473968505859375
2024-06-20T17:51:24.637+02:00,4344.880882666667,-1.150619506835938,1.48870849609375,-0.889251708984375
2024-06-20T17:51:24.647+02:00,4344.890939666667,-1.053436279296875,1.370803833007812,-0.819488525390625
2024-06-20T17:51:24.657+02:00,4344.900996666667,-1.056747436523438,1.279205322265625,-0.6210784912109375
2024-06-20T17:51:24.667+02:00,4344.911054666667,-1.132354736328125,1.166793823242188,-0.379608154296875
2024-06-20T17:51:24.677+02:00,4344.921111666667,-1.195465087890625,1.102081298828125,-0.2705078125
2024-06-20T17:51:24.687+02:00,4344.931169666667,-1.19903564453125,1.053573608398438,-0.275054931640625
2024-06-20T17:51:24.697+02:00,4344.941226666667,-1.134658813476562,1.014602661132812,-0.3213958740234375
2024-06-20T17:51:24.707+02:00,4344.951284666667,-1.017974853515625,0.9891510009765625,-0.3572845458984375
2024-06-20T17:51:24.717+02:00,4344.961341666667,-0.8588104248046875,0.98663330078125,-0.2054443359375
2024-06-20T17:51:24.727+02:00,4344.971399666667,-0.700225830078125,1.010818481445312,0.000732421875
2024-06-20T17:51:24.738+02:00,4344.981456666667,-0.549102783203125,0.99102783203125,0.231781005859375
2024-06-20T17:51:24.748+02:00,4344.991514666667,-0.3494720458984375,1.0487060546875,0.5272216796875
2024-06-20T17:51:24.758+02:00,4345.001571666667,-0.1247100830078125,1.153579711914062,0.7650604248046875
2024-06-20T17:51:24.768+02:00,4345.011629666667,0.0761566162109375,1.32342529296875,0.7867431640625
2024-06-20T17:51:24.778+02:00,4345.021686666667,0.2377471923828125,1.466812133789062,0.6460113525390625
2024-06-20T17:51:24.788+02:00,4345.031743666667,0.2929229736328125,1.64276123046875,0.627105712890625
2024-06-20T17:51:24.798+02:00,4345.041801666667,0.14398193359375,1.844512939453125,0.857666015625
2024-06-20T17:51:24.808+02:00,4345.051858666667,-0.121734619140625,2.008132934570312,1.141006469726562
2024-06-20T17:51:24.818+02:00,4345.061916666667,-0.3119659423828125,2.255081176757812,1.298187255859375
2024-06-20T17:51:24.828+02:00,4345.071973666667,-0.3747406005859375,2.427780151367188,1.149017333984375
2024-06-20T17:51:24.838+02:00,4345.082031666667,-0.40069580078125,2.534805297851562,0.8647613525390625
2024-06-20T17:51:24.848+02:00,4345.092088666667,-0.410247802734375,2.534271240234375,0.7032623291015625
2024-06-20T17:51:24.858+02:00,4345.102147250001,-0.4232940673828125,2.553573608398438,0.563018798828125
2024-06-20T17:51:24.868+02:00,4345.11220425,-0.459808349609375,2.52911376953125,0.499969482421875
2024-06-20T17:51:24.878+02:00,4345.12226225,-0.4713592529296875,2.439285278320312,0.410797119140625
2024-06-20T17:51:24.888+02:00,4345.13231925,-0.4473419189453125,2.499603271484375,0.43658447265625
2024-06-20T17:51:24.898+02:00,4345.14237725,-0.5189056396484375,2.437835693359375,0.154876708984375
2024-06-20T17:51:24.908+02:00,4345.152434250001,-0.530975341796875,2.333419799804688,-0.15789794921875
2024-06-20T17:51:24.919+02:00,4345.16249225,-0.535430908203125,2.979156494140625,0.24212646484375
2024-06-20T17:51:24.929+02:00,4345.17254925,-0.51904296875,2.761505126953125,-0.218994140625
2024-06-20T17:51:24.939+02:00,4345.18260725,-0.5757904052734375,2.353347778320312,0.06365966796875
2024-06-20T17:51:24.949+02:00,4345.19266425,-0.6070404052734375,1.969482421875,0.3016204833984375
2024-06-20T17:51:24.959+02:00,4345.202721250001,-0.5371856689453125,1.9976806640625,0.387359619140625
2024-06-20T17:51:24.969+02:00,4345.21277925,-0.4331817626953125,2.062911987304688,0.3463897705078125
2024-06-20T17:51:24.979+02:00,4345.22283625,-0.334808349609375,2.141357421875,0.381317138671875
