loggingTime(txt),accelerometerTimestamp_sinceReboot(s),accelerometerAccelerationX(G),accelerometerAccelerationY(G),accelerometerAccelerationZ(G)
2024-06-20T18:00:21.849+02:00,4827.375687125001,-0.3537750244140625,-0.1203765869140625,-0.858978271484375
2024-06-20T18:00:21.850+02:00,4827.385744125,-0.3248291015625,-0.077606201171875,-0.898651123046875
2024-06-20T18:00:21.850+02:00,4827.395802125,-0.2755279541015625,-0.0504150390625,-0.972259521484375
2024-06-20T18:00:21.855+02:00,4827.405859125,-0.2555084228515625,-0.0250701904296875,-1.061447143554688
2024-06-20T18:00:21.858+02:00,4827.415916125,-0.3188323974609375,-0.0906982421875,-1.107040405273438
2024-06-20T18:00:21.858+02:00,4827.425974125001,-0.303070068359375,-0.2064056396484375,-1.067092895507812
2024-06-20T18:00:21.859+02:00,4827.436031125,-0.269561767578125,-0.2713623046875,-1.010406494140625
2024-06-20T18:00:21.859+02:00,4827.446089125,-0.3662261962890625,-0.24713134765625,-0.936004638671875
2024-06-20T18:00:21.859+02:00,4827.456146125,-0.3683624267578125,-0.1605072021484375,-0.8941497802734375
2024-06-20T18:00:21.859+02:00,4827.466204125,-0.303070068359375,-0.0934600830078125,-0.9220123291015625
2024-06-20T18:00:21.860+02:00,4827.476261125001,-0.29681396484375,-0.018310546875,-0.89288330078125
2024-06-20T18:00:21.860+02:00,4827.486318125,-0.2756500244140625,0.0169219970703125,-0.89471435546875
2024-06-20T18:00:21.860+02:00,4827.496376125,-0.2614898681640625,-0.0257720947265625,-0.865325927734375
2024-06-20T18:00:21.860+02:00,4827.506433125001,-0.2476806640625,-0.06097412109375,-0.886749267578125
2024-06-20T18:00:21.860+02:00,4827.516491125,-0.2692718505859375,-0.0824127197265625,-0.889373779296875
2024-06-20T18:00:21.861+02:00,4827.526548125,-0.325927734375,-0.1137542724609375,-0.834716796875
2024-06-20T18:00:21.861+02:00,4827.536605125,-0.381561279296875,-0.1825408935546875,-0.7372589111328125
2024-06-20T18:00:21.861+02:00,4827.546663125,-0.3701629638671875,-0.1989288330078125,-0.612213134765625
2024-06-20T18:00:21.861+02:00,4827.556720125001,-0.2693023681640625,-0.1420745849609375,-0.6713714599609375
2024-06-20T18:00:21.862+02:00,4827.566778125,-0.2608184814453125,-0.0994415283203125,-0.7551422119140625
2024-06-20T18:00:21.862+02:00,4827.576835125,-0.3502197265625,-0.077545166015625,-0.841766357421875
2024-06-20T18:00:21.862+02:00,4827.586893125001,-0.363494873046875,-0.028228759765625,-0.9392547607421875
2024-06-20T18:00:21.862+02:00,4827.596950125,-0.29632568359375,0.0041046142578125,-1.06915283203125
2024-06-20T18:00:21.862+02:00,4827.607007125001,-0.2417755126953125,0.0186309814453125,-1.163818359375
2024-06-20T18:00:21.863+02:00,4827.617065750001,-0.2027740478515625,0.0450897216796875,-1.20208740234375
2024-06-20T18:00:21.863+02:00,4827.62712275,-0.206695556640625,0.0137939453125,-1.216262817382812
2024-06-20T18:00:21.863+02:00,4827.63718075,-0.2722625732421875,-0.0672760009765625,-1.139907836914062
2024-06-20T18:00:21.863+02:00,4827.64723775,-0.3292236328125,-0.1732177734375,-0.9969635009765625
2024-06-20T18:00:21.863+02:00,4827.65729575,-0.3037567138671875,-0.2453460693359375,-0.9573974609375
2024-06-20T18:00:21.864+02:00,4827.667352750001,-0.2991790771484375,-0.1728515625,-0.986663818359375
2024-06-20T18:00:21.864+02:00,4827.67740975,-0.3921356201171875,-0.1044921875,-0.9798431396484375
2024-06-20T18:00:21.864+02:00,4827.68746775,-0.437591552734375,-0.0685272216796875,-0.9411163330078125
2024-06-20T18:00:21.865+02:00,4827.69752475,-0.3165283203125,-0.075286865234375,-0.916015625
2024-06-20T18:00:21.865+02:00,4827.70758275,-0.26312255859375,-0.1002960205078125,-0.987091064453125
2024-06-20T18:00:21.865+02:00,4827.717639750001,-0.28436279296875,-0.08905029296875,-0.98358154296875
2024-06-20T18:00:21.866+02:00,4827.72769675,-0.2400970458984375,-0.1779937744140625,-0.9874420166015625
2024-06-20T18:00:21.866+02:00,4827.73775475,-0.221405029296875,-0.2061920166015625,-0.9968414306640625
2024-06-20T18:00:21.866+02:00,4827.74781175,-0.217193603515625,-0.18524169921875,-1.033599853515625
2024-06-20T18:00:21.866+02:00,4827.75786975,-0.25030517578125,-0.171539306640625,-1.006759643554688
2024-06-20T18:00:21.867+02:00,4827.767926750001,-0.296478271484375,-0.12542724609375,-0.9224090576171875
2024-06-20T18:00:21.867+02:00,4827.777984750001,-0.3333740234375,-0.1084442138671875,-0.9189910888671875
2024-06-20T18:00:21.867+02:00,4827.78804175,-0.3812408447265625,-0.0974273681640625,-0.885833740234375
2024-06-20T18:00:21.867+02:00,4827.79809875,-0.3575286865234375,-0.0644989013671875,-0.86541748046875
2024-06-20T18:00:21.868+02:00,4827.80815675,-0.2937774658203125,-0.0684814453125,-0.8900909423828125
2024-06-20T18:00:21.868+02:00,4827.818213750001,-0.2446441650390625,-0.045074462890625,-0.8905792236328125
2024-06-20T18:00:21.868+02:00,4827.828271750001,-0.2740325927734375,-0.03070068359375,-0.9251251220703125
2024-06-20T18:00:21.868+02:00,4827.83832875,-0.266754150390625,-0.0428466796875,-0.9402618408203125
2024-06-20T18:00:21.868+02:00,4827.84838575,-0.19146728515625,-0.0454254150390625,-0.9039764404296875
2024-06-20T18:00:21.869+02:00,4827.85844375,-0.2108917236328125,-0.0451202392578125,-0.8649139404296875
2024-06-20T18:00:21.869+02:00,4827.86850075,-0.3003692626953125,-0.119720458984375,-0.90087890625
2024-06-20T18:00:21.869+02:00,4827.878558750001,-0.2926025390625,-0.112518310546875,-0.8851470947265625
2024-06-20T18:00:21.869+02:00,4827.88861575,-0.1773834228515625,-0.0517730712890625,-0.91796875
2024-06-20T18:00:21.870+02:00,4827.89867375,-0.1840667724609375,-0.0689849853515625,-0.9840850830078125
2024-06-20T18:00:21.870+02:00,4827.90873075,-0.2619476318359375,-0.09637451171875,-0.9998779296875
2024-06-20T18:00:21.870+02:00,4827.91878775,-0.2732391357421875,-0.1090545654296875,-0.98956298828125
2024-06-20T18:00:21.870+02:00,4827.928845750001,-0.2072906494140625,-0.083526611328125,-0.976348876953125
2024-06-20T18:00:21.870+02:00,4827.93890275,-0.2027740478515625,-0.108154296875,-0.978851318359375
2024-06-20T18:00:21.871+02:00,4827.94896075,-0.323394775390625,-0.1866607666015625,-0.916900634765625
2024-06-20T18:00:21.871+02:00,4827.95901775,-0.36181640625,-0.1470184326171875,-0.8570556640625
2024-06-20T18:00:21.871+02:00,4827.96907475,-0.2822418212890625,-0.150970458984375,-0.8873291015625
2024-06-20T18:00:21.871+02:00,4827.979132750001,-0.2737884521484375,-0.194549560546875,-0.8843536376953125
2024-06-20T18:00:21.871+02:00,4827.98918975,-0.255279541015625,-0.1772308349609375,-0.83026123046875
2024-06-20T18:00:21.872+02:00,4827.99924775,-0.20703125,-0.1515350341796875,-0.8212738037109375
2024-06-20T18:00:21.872+02:00,4828.00930475,-0.307769775390625,-0.12933349609375,-0.8456878662109375
2024-06-20T18:00:21.872+02:00,4828.01936275,-0.366485595703125,-0.1271514892578125,-0.8856964111328125
2024-06-20T18:00:21.872+02:00,4828.029419750001,-0.2626190185546875,-0.1339874267578125,-0.9181060791015625
2024-06-20T18:00:21.873+02:00,4828.03947675,-0.243988037109375,-0.1432647705078125,-0.9650115966796875
2024-06-20T18:00:21.873+02:00,4828.04953475,-0.386016845703125,-0.1736602783203125,-0.9445037841796875
2024-06-20T18:00:21.873+02:00,4828.05959175,-0.43975830078125,-0.146331787109375,-0.9086761474609375
2024-06-20T18:00:21.873+02:00,4828.06964975,-0.355987548828125,-0.12982177734375,-0.91156005859375
2024-06-20T18:00:21.874+02:00,4828.079706750001,-0.31903076171875,-0.11199951171875,-0.89031982421875
2024-06-20T18:00:21.874+02:00,4828.089764750001,-0.3921051025390625,-0.0906524658203125,-0.877593994140625
2024-06-20T18:00:21.874+02:00,4828.09982175,-0.381561279296875,-0.1346435546875,-0.94952392578125
2024-06-20T18:00:21.874+02:00,4828.10987875,-0.311798095703125,-0.2132110595703125,-0.95184326171875
2024-06-20T18:00:21.874+02:00,4828.11993675,-0.3030853271484375,-0.1967620849609375,-0.9120635986328125
2024-06-20T18:00:21.875+02:00,4828.129993750001,-0.3154754638671875,-0.118743896484375,-0.8822174072265625
2024-06-20T18:00:21.875+02:00,4828.140051750001,-0.3273468017578125,-0.1195068359375,-0.79327392578125
2024-06-20T18:00:21.875+02:00,4828.15010875,-0.3968505859375,-0.170562744140625,-0.7618408203125
2024-06-20T18:00:21.875+02:00,4828.16016575,-0.465118408203125,-0.2830657958984375,-0.7014617919921875
2024-06-20T18:00:21.876+02:00,4828.17022375,-0.42498779296875,-0.3318634033203125,-0.5325927734375
2024-06-20T18:00:21.876+02:00,4828.18028075,-0.376434326171875,-0.302734375,-0.4474334716796875
2024-06-20T18:00:21.876+02:00,4828.190338750001,-0.3734283447265625,-0.1837310791015625,-0.4375152587890625
2024-06-20T18:00:21.876+02:00,4828.20039575,-0.366302490234375,-0.0599517822265625,-0.364227294921875
2024-06-20T18:00:21.876+02:00,4828.21045375,-0.3122100830078125,-0.049896240234375,-0.3115234375
2024-06-20T18:00:21.877+02:00,4828.22051075,-0.340911865234375,-0.172637939453125,-0.2413482666015625
2024-06-20T18:00:21.877+02:00,4828.23056775,-0.488067626953125,-0.2713470458984375,-0.168670654296875
2024-06-20T18:00:21.877+02:00,4828.240625750001,-0.6087188720703125,-0.212799072265625,-0.0146331787109375
2024-06-20T18:00:21.877+02:00,4828.25068275,-0.554412841796875,-0.1598663330078125,0.0396881103515625
2024-06-20T18:00:21.877+02:00,4828.26074075,-0.447723388671875,-0.2351837158203125,-0.0606231689453125
2024-06-20T18:00:21.878+02:00,4828.27079775,-0.40789794921875,-0.4486541748046875,-0.770263671875
2024-06-20T18:00:21.878+02:00,4828.28085575,-0.583984375,-1.015716552734375,-2.16558837890625
2024-06-20T18:00:21.878+02:00,4828.290912750001,-0.700103759765625,-0.8670654296875,-1.257095336914062
2024-06-20T18:00:21.878+02:00,4828.30096975,-0.37689208984375,0.0790252685546875,-2.182968139648438
2024-06-20T18:00:21.878+02:00,4828.31102775,0.0426025390625,0.89404296875,-1.154647827148438
2024-06-20T18:00:21.879+02:00,4828.32108475,0.4708099365234375,1.312469482421875,-2.842849731445312
2024-06-20T18:00:21.879+02:00,4828.33114275,0.7599334716796875,0.9765167236328125,-1.558547973632812
2024-06-20T18:00:21.879+02:00,4828.341199750001,-0.2539520263671875,-0.0933380126953125,-1.080322265625
2024-06-20T18:00:21.879+02:00,4828.35125675,-0.0843963623046875,-0.2951812744140625,-1.329055786132812
2024-06-20T18:00:21.880+02:00,4828.36131475,-0.11334228515625,0.3032073974609375,-1.110214233398438
2024-06-20T18:00:21.880+02:00,4828.37137175,0.1314849853515625,0.7914581298828125,-1.227767944335938
2024-06-20T18:00:21.880+02:00,4828.38142975,-0.0751495361328125,0.5892181396484375,-1.0205078125
2024-06-20T18:00:21.880+02:00,4828.391486750001,-0.17694091796875,0.147491455078125,-1.00469970703125
2024-06-20T18:00:21.880+02:00,4828.401544750001,-0.1971282958984375,-0.07586669921875,-0.9058990478515625
2024-06-20T18:00:21.881+02:00,4828.41160175,-0.204071044921875,-0.1247406005859375,-0.8197021484375
2024-06-20T18:00:21.881+02:00,4828.42165875,-0.231658935546875,-0.111175537109375,-0.8577423095703125
2024-06-20T18:00:21.882+02:00,4828.43171675,-0.441192626953125,-0.0587310791015625,-0.879486083984375
2024-06-20T18:00:21.882+02:00,4828.441773750001,-0.4802703857421875,0.0553436279296875,-0.871673583984375
2024-06-20T18:00:21.882+02:00,4828.451831750001,-0.3035888671875,0.0735626220703125,-0.9348297119140625
2024-06-20T18:00:21.882+02:00,4828.46188875,-0.044586181640625,0.194091796875,-1.158554077148438
2024-06-20T18:00:21.883+02:00,4828.47194575,0.12066650390625,0.6644134521484375,-0.958953857421875
2024-06-20T18:00:21.883+02:00,4828.48200375,0.1600341796875,1.009750366210938,-0.854400634765625
2024-06-20T18:00:21.883+02:00,4828.492060750001,0.1073150634765625,0.94677734375,-0.93731689453125
2024-06-20T18:00:21.883+02:00,4828.502118750001,-0.1759796142578125,0.4963226318359375,-1.360763549804688
2024-06-20T18:00:21.884+02:00,4828.51217575,-0.507354736328125,0.278411865234375,-1.140838623046875
2024-06-20T18:00:21.884+02:00,4828.52223375,-0.425323486328125,0.255828857421875,-1.053955078125
2024-06-20T18:00:21.884+02:00,4828.53229075,-0.428619384765625,0.3224334716796875,-1.29345703125
2024-06-20T18:00:21.884+02:00,4828.54234775,-0.4975738525390625,0.5096588134765625,-1.263885498046875
2024-06-20T18:00:21.885+02:00,4828.552405750001,-0.5377655029296875,0.531890869140625,-0.9482269287109375
2024-06-20T18:00:21.885+02:00,4828.56246275,-0.5171051025390625,0.4636383056640625,-0.730926513671875
2024-06-20T18:00:21.885+02:00,4828.57252075,-0.37158203125,0.811248779296875,-0.6514434814453125
2024-06-20T18:00:21.885+02:00,4828.58257775,-0.1074981689453125,1.437850952148438,-0.5072174072265625
2024-06-20T18:00:21.885+02:00,4828.59263575,-0.3192138671875,1.619613647460938,-0.1779022216796875
2024-06-20T18:00:21.886+02:00,4828.602692750001,-0.4587554931640625,1.2430419921875,-0.1813507080078125
2024-06-20T18:00:21.886+02:00,4828.61274975,-0.4508056640625,1.008071899414062,-0.20550537109375
2024-06-20T18:00:21.886+02:00,4828.62280775,-0.522705078125,0.8485107421875,-0.240570068359375
2024-06-20T18:00:21.886+02:00,4828.63286475,-0.523223876953125,0.763458251953125,-0.2588043212890625
2024-06-20T18:00:21.886+02:00,4828.64292275,-0.488433837890625,0.8968505859375,-0.3020782470703125
2024-06-20T18:00:21.887+02:00,4828.652979750001,-0.418487548828125,0.8721771240234375,-0.20550537109375
2024-06-20T18:00:21.887+02:00,4828.66303675,-0.4299774169921875,0.7360687255859375,-0.295440673828125
2024-06-20T18:00:21.887+02:00,4828.67309475,-0.570556640625,0.70855712890625,-0.5007781982421875
2024-06-20T18:00:21.887+02:00,4828.68315175,-0.614166259765625,0.6737823486328125,-0.3968963623046875
2024-06-20T18:00:21.888+02:00,4828.69320975,-0.5783233642578125,0.674102783203125,-0.4360198974609375
2024-06-20T18:00:21.888+02:00,4828.703266750001,-0.5872802734375,0.8060302734375,-0.6414337158203125
2024-06-20T18:00:21.888+02:00,4828.713324750001,-0.5288848876953125,0.8774566650390625,-0.6645660400390625
2024-06-20T18:00:21.888+02:00,4828.72338175,-0.5002899169921875,0.8554534912109375,-0.583038330078125
2024-06-20T18:00:21.888+02:00,4828.73343875,-0.561126708984375,0.7820892333984375,-0.5821533203125
2024-06-20T18:00:21.889+02:00,4828.74349675,-0.6065216064453125,0.65484619140625,-0.4120635986328125
2024-06-20T18:00:21.889+02:00,4828.753553750001,-0.6106414794921875,0.63897705078125,-0.2796478271484375
2024-06-20T18:00:21.889+02:00,4828.763611750001,-0.5816192626953125,0.7086029052734375,-0.276153564453125
2024-06-20T18:00:21.889+02:00,4828.77366875,-0.5793609619140625,0.8347930908203125,-0.3785400390625
2024-06-20T18:00:21.889+02:00,4828.78372575,-0.57568359375,0.8729705810546875,-0.4888153076171875
2024-06-20T18:00:21.890+02:00,4828.79378375,-0.6052703857421875,0.9543914794921875,-0.64794921875
2024-06-20T18:00:21.890+02:00,4828.803840750001,-0.6485748291015625,1.019851684570312,-0.67572021484375
2024-06-20T18:00:21.890+02:00,4828.813898750001,-0.71356201171875,0.92742919921875,-0.6505584716796875
2024-06-20T18:00:21.890+02:00,4828.82395575,-0.7803955078125,0.7762603759765625,-0.6064910888671875
2024-06-20T18:00:21.891+02:00,4828.83401375,-0.80462646484375,0.6595916748046875,-0.5106048583984375
2024-06-20T18:00:21.891+02:00,4828.84407075,-0.806182861328125,0.5917510986328125,-0.4637451171875
2024-06-20T18:00:21.891+02:00,4828.85412775,-0.7850494384765625,0.5738525390625,-0.4472503662109375
2024-06-20T18:00:21.891+02:00,4828.864185750001,-0.7487945556640625,0.6114501953125,-0.4970703125
2024-06-20T18:00:21.891+02:00,4828.87424275,-0.7064666748046875,0.7523956298828125,-0.689727783203125
2024-06-20T18:00:21.892+02:00,4828.88430075,-0.6564483642578125,0.8685760498046875,-0.850433349609375
2024-06-20T18:00:21.892+02:00,4828.89435775,-0.64410400390625,0.9273529052734375,-0.910980224609375
2024-06-20T18:00:21.892+02:00,4828.90441475,-0.65643310546875,0.9142303466796875,-0.9024658203125
2024-06-20T18:00:21.892+02:00,4828.914472750001,-0.660369873046875,0.81207275390625,-0.8477325439453125
2024-06-20T18:00:21.892+02:00,4828.92452975,-0.6451873779296875,0.686920166015625,-0.777496337890625
2024-06-20T18:00:21.893+02:00,4828.93458775,-0.5988922119140625,0.5946044921875,-0.7320098876953125
2024-06-20T18:00:21.893+02:00,4828.94464475,-0.5299072265625,0.5617218017578125,-0.7584991455078125
2024-06-20T18:00:21.893+02:00,4828.95470275,-0.4663238525390625,0.5894622802734375,-0.8339691162109375
2024-06-20T18:00:21.893+02:00,4828.964759750001,-0.4221038818359375,0.629364013671875,-0.86181640625
2024-06-20T18:00:21.894+02:00,4828.97481675,-0.421173095703125,0.6585845947265625,-0.8345947265625
2024-06-20T18:00:21.894+02:00,4828.98487475,-0.4637451171875,0.5902252197265625,-0.797882080078125
2024-06-20T18:00:21.894+02:00,4828.99493175,-0.5064849853515625,0.416168212890625,-0.741455078125
2024-06-20T18:00:21.895+02:00,4829.00498975,-0.5310821533203125,0.2052459716796875,-0.69976806640625
2024-06-20T18:00:21.895+02:00,4829.015046750001,-0.5251312255859375,-0.0342864990234375,-0.6188507080078125
2024-06-20T18:00:21.895+02:00,4829.025104750001,-0.5095977783203125,-0.276458740234375,-0.5542755126953125
2024-06-20T18:00:21.895+02:00,4829.03516175,-0.5157928466796875,-0.4614715576171875,-0.5858306884765625
2024-06-20T18:00:21.895+02:00,4829.04521875,-0.51153564453125,-0.5097198486328125,-0.6521759033203125
2024-06-20T18:00:21.896+02:00,4829.05527675,-0.494659423828125,-0.4415283203125,-0.6827850341796875
2024-06-20T18:00:21.896+02:00,4829.065333750001,-0.4810028076171875,-0.3159942626953125,-0.7727508544921875
2024-06-20T18:00:21.896+02:00,4829.075391750001,-0.4857025146484375,-0.1735382080078125,-0.9124755859375
2024-06-20T18:00:21.896+02:00,4829.08544875,-0.4960784912109375,-0.0135498046875,-1.01019287109375
2024-06-20T18:00:21.896+02:00,4829.09550575,-0.4986724853515625,0.1211090087890625,-1.0791015625
2024-06-20T18:00:21.897+02:00,4829.10556375,-0.489105224609375,0.2126312255859375,-1.056396484375
2024-06-20T18:00:21.897+02:00,4829.115620750001,-0.4781646728515625,0.15997314453125,-1.025604248046875
2024-06-20T18:00:21.897+02:00,4829.125678750001,-0.4487762451171875,-0.0022430419921875,-0.8952789306640625
2024-06-20T18:00:21.897+02:00,4829.13573575,-0.411712646484375,-0.1719818115234375,-0.75506591796875
2024-06-20T18:00:21.898+02:00,4829.14579375,-0.38800048828125,-0.2718658447265625,-0.660888671875
2024-06-20T18:00:21.898+02:00,4829.15585075,-0.3759307861328125,-0.322967529296875,-0.5947113037109375
2024-06-20T18:00:21.898+02:00,4829.16590775,-0.375823974609375,-0.314239501953125,-0.6505279541015625
2024-06-20T18:00:21.899+02:00,4829.175965750001,-0.399688720703125,-0.2179718017578125,-0.7010040283203125
2024-06-20T18:00:21.899+02:00,4829.18602275,-0.4347686767578125,-0.1011199951171875,-0.81219482421875
2024-06-20T18:00:21.899+02:00,4829.19608075,-0.4570770263671875,-0.0202789306640625,-0.89544677734375
2024-06-20T18:00:21.899+02:00,4829.20613775,-0.46160888671875,0.0043182373046875,-0.896148681640625
2024-06-20T18:00:21.900+02:00,4829.21619575,-0.4615936279296875,-0.0533294677734375,-0.8774261474609375
2024-06-20T18:00:21.900+02:00,4829.226252750001,-0.4518890380859375,-0.12701416015625,-0.8453216552734375
2024-06-20T18:00:21.900+02:00,4829.23630975,-0.440582275390625,-0.1699066162109375,-0.80450439453125
2024-06-20T18:00:21.900+02:00,4829.24636775,-0.4425201416015625,-0.1732177734375,-0.80853271484375
2024-06-20T18:00:21.900+02:00,4829.25642475,-0.4713287353515625,-0.1607666015625,-0.844970703125
2024-06-20T18:00:21.901+02:00,4829.26648275,-0.515167236328125,-0.17108154296875,-0.88818359375
2024-06-20T18:00:21.901+02:00,4829.276539750001,-0.5511016845703125,-0.186492919921875,-0.9008026123046875
2024-06-20T18:00:21.901+02:00,4829.28659675,-0.56646728515625,-0.2001495361328125,-0.8695831298828125
2024-06-20T18:00:21.901+02:00,4829.29665475,-0.5642547607421875,-0.205810546875,-0.822723388671875
2024-06-20T18:00:21.902+02:00,4829.30671175,-0.5521240234375,-0.20709228515625,-0.776580810546875
2024-06-20T18:00:21.902+02:00,4829.31676975,-0.5418243408203125,-0.20989990234375,-0.7527313232421875
2024-06-20T18:00:21.902+02:00,4829.326826750001,-0.5448760986328125,-0.20721435546875,-0.75872802734375
2024-06-20T18:00:21.902+02:00,4829.336884750001,-0.55096435546875,-0.21258544921875,-0.772125244140625
2024-06-20T18:00:21.902+02:00,4829.34694175,-0.551055908203125,-0.21551513671875,-0.800994873046875
2024-06-20T18:00:21.903+02:00,4829.35699875,-0.5388031005859375,-0.2209625244140625,-0.81622314453125
2024-06-20T18:00:21.903+02:00,4829.36705675,-0.5208587646484375,-0.230926513671875,-0.81353759765625
2024-06-20T18:00:21.903+02:00,4829.377113750001,-0.507293701171875,-0.260528564453125,-0.8027191162109375
2024-06-20T18:00:21.903+02:00,4829.387171750001,-0.49432373046875,-0.2965545654296875,-0.7897796630859375
2024-06-20T18:00:21.904+02:00,4829.39722875,-0.4773406982421875,-0.318359375,-0.778350830078125
2024-06-20T18:00:21.904+02:00,4829.40728675,-0.4544677734375,-0.3267974853515625,-0.781982421875
2024-06-20T18:00:21.904+02:00,4829.41734375,-0.43524169921875,-0.332427978515625,-0.79913330078125
2024-06-20T18:00:21.904+02:00,4829.427400750001,-0.42401123046875,-0.356719970703125,-0.8212127685546875
2024-06-20T18:00:21.904+02:00,4829.437458750001,-0.4087982177734375,-0.3869476318359375,-0.83135986328125
2024-06-20T18:00:21.905+02:00,4829.44751575,-0.3889923095703125,-0.39996337890625,-0.8263092041015625
2024-06-20T18:00:21.905+02:00,4829.45757375,-0.366058349609375,-0.3872222900390625,-0.791351318359375
2024-06-20T18:00:21.905+02:00,4829.46763075,-0.34857177734375,-0.3814697265625,-0.736846923828125
2024-06-20T18:00:21.905+02:00,4829.47768775,-0.32110595703125,-0.3623504638671875,-0.683380126953125
2024-06-20T18:00:21.906+02:00,4829.487745750001,-0.2961578369140625,-0.3515167236328125,-0.6542816162109375
2024-06-20T18:00:21.906+02:00,4829.49780275,-0.2781829833984375,-0.3664398193359375,-0.6633148193359375
2024-06-20T18:00:21.906+02:00,4829.50786075,-0.276123046875,-0.3939971923828125,-0.6879119873046875
2024-06-20T18:00:21.906+02:00,4829.51791775,-0.27789306640625,-0.402984619140625,-0.71417236328125
2024-06-20T18:00:21.906+02:00,4829.52797575,-0.2722625732421875,-0.37689208984375,-0.7326812744140625
2024-06-20T18:00:21.907+02:00,4829.538032750001,-0.2612762451171875,-0.3450927734375,-0.7433624267578125
2024-06-20T18:00:21.907+02:00,4829.54808975,-0.245819091796875,-0.3167877197265625,-0.7678375244140625
2024-06-20T18:00:21.907+02:00,4829.55814775,-0.2293853759765625,-0.2685699462890625,-0.814544677734375
2024-06-20T18:00:21.907+02:00,4829.56820475,-0.22015380859375,-0.2161712646484375,-0.835235595703125
2024-06-20T18:00:21.907+02:00,4829.57826275,-0.21875,-0.1811981201171875,-0.856964111328125
2024-06-20T18:00:21.908+02:00,4829.588319750001,-0.2200775146484375,-0.15325927734375,-0.8643798828125
2024-06-20T18:00:21.908+02:00,4829.59837675,-0.230926513671875,-0.14434814453125,-0.88568115234375
2024-06-20T18:00:21.908+02:00,4829.60843475,-0.244049072265625,-0.1662750244140625,-0.89569091796875
2024-06-20T18:00:21.908+02:00,4829.618491125,-0.2489471435546875,-0.2231597900390625,-0.899688720703125
2024-06-20T18:00:21.909+02:00,4829.628549125,-0.2360992431640625,-0.2822418212890625,-0.884796142578125
2024-06-20T18:00:21.909+02:00,4829.638606125,-0.2095489501953125,-0.3179931640625,-0.8590240478515625
2024-06-20T18:00:21.909+02:00,4829.648664125,-0.18194580078125,-0.3196868896484375,-0.8323516845703125
2024-06-20T18:00:21.909+02:00,4829.658721125001,-0.15850830078125,-0.2952880859375,-0.8089599609375
2024-06-20T18:00:21.909+02:00,4829.668778125,-0.1425628662109375,-0.2479095458984375,-0.7736968994140625
2024-06-20T18:00:21.910+02:00,4829.678836125,-0.132537841796875,-0.203460693359375,-0.785064697265625
2024-06-20T18:00:21.910+02:00,4829.688893125001,-0.13726806640625,-0.18853759765625,-0.813568115234375
2024-06-20T18:00:21.910+02:00,4829.698951125,-0.155242919921875,-0.1949615478515625,-0.86663818359375
2024-06-20T18:00:21.910+02:00,4829.709008125,-0.1696319580078125,-0.1883087158203125,-0.8725128173828125
2024-06-20T18:00:21.911+02:00,4829.719066125001,-0.1668243408203125,-0.190643310546875,-0.8683319091796875
2024-06-20T18:00:21.911+02:00,4829.729123125,-0.1473541259765625,-0.20501708984375,-0.8433990478515625
2024-06-20T18:00:21.911+02:00,4829.739180125001,-0.1265106201171875,-0.23004150390625,-0.8095245361328125
2024-06-20T18:00:21.911+02:00,4829.749238125,-0.10931396484375,-0.2528533935546875,-0.7974090576171875
2024-06-20T18:00:21.912+02:00,4829.759295125,-0.10003662109375,-0.2852935791015625,-0.799285888671875
2024-06-20T18:00:21.912+02:00,4829.769353125001,-0.0933837890625,-0.31207275390625,-0.8303375244140625
2024-06-20T18:00:21.912+02:00,4829.779410125,-0.093048095703125,-0.315948486328125,-0.891510009765625
2024-06-20T18:00:21.912+02:00,4829.789467125001,-0.1116943359375,-0.2975006103515625,-0.952667236328125
2024-06-20T18:00:21.912+02:00,4829.799525125,-0.1465301513671875,-0.278228759765625,-0.991302490234375
2024-06-20T18:00:21.913+02:00,4829.809582125,-0.18505859375,-0.268768310546875,-1.023788452148438
2024-06-20T18:00:21.913+02:00,4829.819640125001,-0.2145538330078125,-0.253936767578125,-1.023590087890625
2024-06-20T18:00:21.913+02:00,4829.829697125,-0.22760009765625,-0.23199462890625,-1.023956298828125
2024-06-20T18:00:21.913+02:00,4829.839755125,-0.2260894775390625,-0.2313995361328125,-1.025009155273438
2024-06-20T18:00:21.914+02:00,4829.849812125,-0.230499267578125,-0.266571044921875,-1.023208618164062
2024-06-20T18:00:21.914+02:00,4829.859869125,-0.242095947265625,-0.312164306640625,-1.021743774414062
2024-06-20T18:00:21.914+02:00,4829.869927125001,-0.2480316162109375,-0.3419342041015625,-1.004974365234375
2024-06-20T18:00:21.915+02:00,4829.879984125,-0.2481536865234375,-0.3743133544921875,-0.987152099609375
2024-06-20T18:00:21.915+02:00,4829.890042125,-0.24420166015625,-0.4085845947265625,-0.9708709716796875
2024-06-20T18:00:21.915+02:00,4829.900099125,-0.2388763427734375,-0.4454498291015625,-0.9596099853515625
2024-06-20T18:00:21.915+02:00,4829.910157125,-0.23382568359375,-0.4717559814453125,-0.9773712158203125
2024-06-20T18:00:21.916+02:00,4829.920214125001,-0.2243499755859375,-0.4700775146484375,-0.9780120849609375
2024-06-20T18:00:21.916+02:00,4829.930271125,-0.2088623046875,-0.4450836181640625,-0.9753265380859375
2024-06-20T18:00:21.916+02:00,4829.940329125,-0.19232177734375,-0.40728759765625,-0.9866790771484375
2024-06-20T18:00:21.917+02:00,4829.950386125,-0.1884613037109375,-0.3583831787109375,-0.9779052734375
2024-06-20T18:00:21.917+02:00,4829.960444125,-0.1883697509765625,-0.3271331787109375,-0.965362548828125
2024-06-20T18:00:21.917+02:00,4829.970501125001,-0.1951446533203125,-0.330078125,-0.951507568359375
2024-06-20T18:00:21.918+02:00,4829.980558125,-0.19989013671875,-0.3572998046875,-0.9430999755859375
2024-06-20T18:00:21.918+02:00,4829.990616125,-0.2120361328125,-0.4431915283203125,-0.8425750732421875
2024-06-20T18:00:21.918+02:00,4830.000673125001,-0.203216552734375,-0.5531158447265625,-0.8032073974609375
2024-06-20T18:00:21.919+02:00,4830.010731125,-0.174041748046875,-0.5442047119140625,-0.7240142822265625
2024-06-20T18:00:21.919+02:00,4830.020788125,-0.191802978515625,-0.566741943359375,-0.71185302734375
2024-06-20T18:00:21.919+02:00,4830.030846125001,-0.3312530517578125,-0.13763427734375,-0.8018951416015625
2024-06-20T18:00:21.919+02:00,4830.040903125,-0.072418212890625,-0.2550506591796875,-0.9413909912109375
2024-06-20T18:00:21.920+02:00,4830.050960125001,-0.1117095947265625,-0.1436309814453125,-0.909912109375
2024-06-20T18:00:21.920+02:00,4830.061018125,-0.2085723876953125,-0.1341552734375,-0.8856658935546875
2024-06-20T18:00:21.920+02:00,4830.071075125,-0.2148284912109375,-0.3241424560546875,-0.8973236083984375
2024-06-20T18:00:21.920+02:00,4830.081133125001,-0.17633056640625,-0.511871337890625,-0.887786865234375
2024-06-20T18:00:21.921+02:00,4830.091190125,-0.110565185546875,-0.622467041015625,-0.7792816162109375
2024-06-20T18:00:21.921+02:00,4830.101247125001,-0.0957794189453125,-0.7274169921875,-0.7312469482421875
2024-06-20T18:00:21.921+02:00,4830.111305125,-0.088287353515625,-0.6934661865234375,-0.77593994140625
2024-06-20T18:00:21.921+02:00,4830.121362125,-0.090606689453125,-0.528411865234375,-0.8302459716796875
2024-06-20T18:00:21.921+02:00,4830.131420125001,-0.12310791015625,-0.3737640380859375,-0.8594512939453125
2024-06-20T18:00:21.922+02:00,4830.141477125,-0.1533355712890625,-0.2470245361328125,-0.8810272216796875
2024-06-20T18:00:21.922+02:00,4830.151535125,-0.1826019287109375,-0.1907501220703125,-0.889678955078125
2024-06-20T18:00:21.922+02:00,4830.161592125,-0.185272216796875,-0.22705078125,-0.89227294921875
2024-06-20T18:00:21.922+02:00,4830.171649125,-0.157623291015625,-0.3337554931640625,-0.88079833984375
2024-06-20T18:00:21.923+02:00,4830.181707125001,-0.126800537109375,-0.4202423095703125,-0.8643798828125
2024-06-20T18:00:21.923+02:00,4830.191764125,-0.1236724853515625,-0.475250244140625,-0.8472900390625
2024-06-20T18:00:21.923+02:00,4830.201822125,-0.110687255859375,-0.522918701171875,-0.8112335205078125
2024-06-20T18:00:21.923+02:00,4830.211879125,-0.094482421875,-0.542083740234375,-0.78582763671875
2024-06-20T18:00:21.924+02:00,4830.221937125,-0.065185546875,-0.5318450927734375,-0.782684326171875
2024-06-20T18:00:21.924+02:00,4830.231994125001,-0.0504913330078125,-0.502960205078125,-0.8134613037109375
2024-06-20T18:00:21.924+02:00,4830.242051125,-0.0521240234375,-0.467620849609375,-0.8380584716796875
2024-06-20T18:00:21.924+02:00,4830.252109125,-0.0547637939453125,-0.443695068359375,-0.8486175537109375
2024-06-20T18:00:21.925+02:00,4830.262166125,-0.0522308349609375,-0.423553466796875,-0.8533935546875
2024-06-20T18:00:21.925+02:00,4830.272224125,-0.0638580322265625,-0.4087066650390625,-0.851470947265625
2024-06-20T18:00:21.925+02:00,4830.282281125001,-0.0543212890625,-0.4071044921875,-0.8349151611328125
2024-06-20T18:00:21.925+02:00,4830.292338125,-0.0602264404296875,-0.4261627197265625,-0.8172149658203125
2024-06-20T18:00:21.926+02:00,4830.302396125,-0.066986083984375,-0.4253692626953125,-0.807342529296875
2024-06-20T18:00:21.926+02:00,4830.312453125001,-0.0724334716796875,-0.4066925048828125,-0.8192901611328125
2024-06-20T18:00:21.926+02:00,4830.322511125,-0.0823211669921875,-0.41473388671875,-0.829254150390625
2024-06-20T18:00:21.926+02:00,4830.332568125,-0.0929412841796875,-0.415985107421875,-0.8472137451171875
2024-06-20T18:00:21.926+02:00,4830.342626125001,-0.078155517578125,-0.422271728515625,-0.8592071533203125
2024-06-20T18:00:21.927+02:00,4830.352683125,0.0132904052734375,-0.4575347900390625,-0.7718658447265625
2024-06-20T18:00:21.927+02:00,4830.362740125001,-0.05859375,-0.502838134765625,-0.882659912109375
2024-06-20T18:00:21.927+02:00,4830.372798125,-0.02288818359375,-0.360504150390625,-0.864837646484375
2024-06-20T18:00:21.927+02:00,4830.382855125,-0.059814453125,-0.3446044921875,-0.93304443359375
2024-06-20T18:00:21.928+02:00,4830.392913125001,-0.0865936279296875,-0.4002227783203125,-0.9060821533203125
2024-06-20T18:00:21.928+02:00,4830.402970125,-0.0414581298828125,-0.4496612548828125,-0.886322021484375
2024-06-20T18:00:21.928+02:00,4830.413027125001,-0.00372314453125,-0.403839111328125,-0.881256103515625
2024-06-20T18:00:21.928+02:00,4830.423085125,-0.0234832763671875,-0.4288482666015625,-0.9011688232421875
2024-06-20T18:00:21.928+02:00,4830.433142125,-0.04974365234375,-0.404449462890625,-0.8969573974609375
2024-06-20T18:00:21.929+02:00,4830.443200125001,-0.0603485107421875,-0.414947509765625,-0.873748779296875
2024-06-20T18:00:21.929+02:00,4830.453257125,-0.0733184814453125,-0.4533538818359375,-0.8516082763671875
2024-06-20T18:00:21.929+02:00,4830.463315125,-0.05084228515625,-0.4811859130859375,-0.83062744140625
2024-06-20T18:00:21.929+02:00,4830.473372125,-0.033538818359375,-0.4777679443359375,-0.82489013671875
2024-06-20T18:00:21.930+02:00,4830.483429125,-0.041839599609375,-0.4751129150390625,-0.833953857421875
2024-06-20T18:00:21.930+02:00,4830.493487125001,-0.0462646484375,-0.476318359375,-0.8486328125
2024-06-20T18:00:21.930+02:00,4830.503544125,-0.0406036376953125,-0.45526123046875,-0.8546295166015625
2024-06-20T18:00:21.930+02:00,4830.513602125,-0.0296478271484375,-0.4376068115234375,-0.860076904296875
2024-06-20T18:00:21.930+02:00,4830.523659125,-0.01495361328125,-0.4368438720703125,-0.8701171875
2024-06-20T18:00:21.931+02:00,4830.533717125,-0.005615234375,-0.44451904296875,-0.8848876953125
2024-06-20T18:00:21.931+02:00,4830.543774125001,-0.003936767578125,-0.4458160400390625,-0.8859405517578125
2024-06-20T18:00:21.935+02:00,4830.553831125,-0.0135498046875,-0.4373779296875,-0.8872222900390625
2024-06-20T18:00:21.945+02:00,4830.563889125,-0.00860595703125,-0.4484710693359375,-0.8823089599609375
2024-06-20T18:00:21.955+02:00,4830.573946125,-0.0037689208984375,-0.4688568115234375,-0.8745880126953125
2024-06-20T18:00:21.965+02:00,4830.584004125,-0.003204345703125,-0.483917236328125,-0.862548828125
2024-06-20T18:00:21.975+02:00,4830.594061125001,-0.01800537109375,-0.487762451171875,-0.85382080078125
2024-06-20T18:00:21.985+02:00,4830.604118125,-0.0311431884765625,-0.4847564697265625,-0.8417205810546875
2024-06-20T18:00:21.995+02:00,4830.614175666667,-0.0461883544921875,-0.483978271484375,-0.8427734375
2024-06-20T18:00:22.005+02:00,4830.624232666667,-0.056304931640625,-0.4714813232421875,-0.8464508056640625
2024-06-20T18:00:22.015+02:00,4830.634290666667,-0.0592041015625,-0.4513702392578125,-0.856475830078125
2024-06-20T18:00:22.025+02:00,4830.644347666667,-0.0554656982421875,-0.4463653564453125,-0.868896484375
2024-06-20T18:00:22.035+02:00,4830.654405666667,-0.0443572998046875,-0.4510345458984375,-0.8782501220703125
2024-06-20T18:00:22.045+02:00,4830.664462666667,-0.02850341796875,-0.45477294921875,-0.8841552734375
2024-06-20T18:00:22.056+02:00,4830.674519666667,-0.0173797607421875,-0.4510955810546875,-0.889801025390625
2024-06-20T18:00:22.066+02:00,4830.684577666667,-0.0186004638671875,-0.4458465576171875,-0.885284423828125
2024-06-20T18:00:22.076+02:00,4830.694634666667,-0.026641845703125,-0.4480438232421875,-0.8758697509765625
2024-06-20T18:00:22.086+02:00,4830.704692666667,-0.0272979736328125,-0.4716796875,-0.871490478515625
2024-06-20T18:00:22.096+02:00,4830.714749666667,-0.0290985107421875,-0.474822998046875,-0.8585662841796875
2024-06-20T18:00:22.106+02:00,4830.724806666667,-0.032012939453125,-0.4620361328125,-0.8508148193359375
2024-06-20T18:00:22.116+02:00,4830.734864666667,-0.0367431640625,-0.450653076171875,-0.8419189453125
2024-06-20T18:00:22.126+02:00,4830.744921666667,-0.0307464599609375,-0.4555816650390625,-0.8339996337890625
2024-06-20T18:00:22.136+02:00,4830.754979666667,-0.021087646484375,-0.461456298828125,-0.839385986328125
2024-06-20T18:00:22.146+02:00,4830.765036666667,-0.0130767822265625,-0.4520721435546875,-0.85205078125
2024-06-20T18:00:22.156+02:00,4830.775094666667,-0.0140228271484375,-0.4391021728515625,-0.8682098388671875
2024-06-20T18:00:22.166+02:00,4830.785151666667,-0.012481689453125,-0.438873291015625,-0.877288818359375
2024-06-20T18:00:22.176+02:00,4830.795208666667,-0.014434814453125,-0.4503021240234375,-0.8850250244140625
2024-06-20T18:00:22.186+02:00,4830.805266666667,-0.0146026611328125,-0.44378662109375,-0.8828125
2024-06-20T18:00:22.197+02:00,4830.815323666667,-0.004119873046875,-0.4415740966796875,-0.8807830810546875
2024-06-20T18:00:22.206+02:00,4830.825381666667,-0.0243988037109375,-0.4444122314453125,-0.88922119140625
2024-06-20T18:00:22.217+02:00,4830.835438666667,-0.0258026123046875,-0.440948486328125,-0.8890228271484375
2024-06-20T18:00:22.227+02:00,4830.845496666667,-0.0213623046875,-0.4238433837890625,-0.886322021484375
2024-06-20T18:00:22.237+02:00,4830.855553666667,-0.027252197265625,-0.40179443359375,-0.8860626220703125
2024-06-20T18:00:22.247+02:00,4830.865610666667,-0.0185546875,-0.379150390625,-0.8900909423828125
2024-06-20T18:00:22.257+02:00,4830.875668666667,-0.0836334228515625,-0.4019622802734375,-0.867401123046875
2024-06-20T18:00:22.267+02:00,4830.885725666667,-0.1078338623046875,-0.447052001953125,-0.8757171630859375
2024-06-20T18:00:22.277+02:00,4830.895783666667,0.0088958740234375,-0.4260406494140625,-0.889190673828125
2024-06-20T18:00:22.287+02:00,4830.905840666667,0.0141754150390625,-0.4054412841796875,-0.8780670166015625
2024-06-20T18:00:22.297+02:00,4830.915897666667,0.00140380859375,-0.4040985107421875,-0.9043426513671875
2024-06-20T18:00:22.307+02:00,4830.925955666667,-0.0031585693359375,-0.3889007568359375,-0.9091949462890625
2024-06-20T18:00:22.317+02:00,4830.936012666667,-0.0038909912109375,-0.347686767578125,-0.919342041015625
2024-06-20T18:00:22.327+02:00,4830.946070666667,-0.0369873046875,-0.3127899169921875,-0.91510009765625
2024-06-20T18:00:22.337+02:00,4830.956127666667,-0.06146240234375,-0.3033905029296875,-0.909820556640625
2024-06-20T18:00:22.354+02:00,4830.966185666667,-0.07073974609375,-0.309661865234375,-0.8964080810546875
2024-06-20T18:00:22.370+02:00,4830.976242666667,-0.075897216796875,-0.3215484619140625,-0.8787841796875
2024-06-20T18:00:22.372+02:00,4830.986299666667,-0.084747314453125,-0.3185882568359375,-0.8489532470703125
2024-06-20T18:00:22.378+02:00,4830.996357666667,-0.094085693359375,-0.302398681640625,-0.8202362060546875
2024-06-20T18:00:22.388+02:00,4831.006414666667,-0.1062164306640625,-0.3021697998046875,-0.8028106689453125
2024-06-20T18:00:22.397+02:00,4831.016472666667,-0.1171417236328125,-0.308441162109375,-0.791290283203125
2024-06-20T18:00:22.408+02:00,4831.026529666667,-0.1200714111328125,-0.2975006103515625,-0.7880706787109375
2024-06-20T18:00:22.421+02:00,4831.036586666667,-0.107177734375,-0.2706756591796875,-0.7884368896484375
2024-06-20T18:00:22.428+02:00,4831.046644666667,-0.0888519287109375,-0.238006591796875,-0.8027496337890625
2024-06-20T18:00:22.438+02:00,4831.056701666667,-0.06964111328125,-0.2125244140625,-0.829803466796875
2024-06-20T18:00:22.448+02:00,4831.066759666667,-0.051300048828125,-0.1905670166015625,-0.854339599609375
2024-06-20T18:00:22.458+02:00,4831.076816666667,-0.0336151123046875,-0.1633453369140625,-0.89373779296875
2024-06-20T18:00:22.468+02:00,4831.086874666667,-0.017578125,-0.1433868408203125,-0.9081878662109375
2024-06-20T18:00:22.478+02:00,4831.096931666667,-0.0027008056640625,-0.1341552734375,-0.914520263671875
2024-06-20T18:00:22.488+02:00,4831.106988666667,0.006744384765625,-0.1292877197265625,-0.9280242919921875
2024-06-20T18:00:22.498+02:00,4831.117046666667,0.0016021728515625,-0.1018829345703125,-0.9378509521484375
2024-06-20T18:00:22.508+02:00,4831.127103666667,-0.006805419921875,-0.0493927001953125,-0.9155731201171875
2024-06-20T18:00:22.518+02:00,4831.137161666667,-0.0176544189453125,-0.0043792724609375,-0.9034881591796875
2024-06-20T18:00:22.528+02:00,4831.147218666667,-0.03082275390625,0.012725830078125,-0.893463134765625
2024-06-20T18:00:22.538+02:00,4831.157276666667,-0.0440216064453125,0.005218505859375,-0.885955810546875
2024-06-20T18:00:22.548+02:00,4831.167333666667,-0.04571533203125,-0.011962890625,-0.893890380859375
2024-06-20T18:00:22.559+02:00,4831.177390666667,-0.036041259765625,-0.042816162109375,-0.9122772216796875
2024-06-20T18:00:22.569+02:00,4831.187448666667,-0.024169921875,-0.079010009765625,-0.9196929931640625
2024-06-20T18:00:22.579+02:00,4831.197505666667,-0.0221405029296875,-0.1046142578125,-0.918975830078125
2024-06-20T18:00:22.589+02:00,4831.207563666667,-0.0357818603515625,-0.09698486328125,-0.90960693359375
2024-06-20T18:00:22.599+02:00,4831.217620666667,-0.0551300048828125,-0.050567626953125,-0.9014129638671875
2024-06-20T18:00:22.609+02:00,4831.227678666667,-0.068359375,0.0146636962890625,-0.88275146484375
2024-06-20T18:00:22.619+02:00,4831.237735666667,-0.0607452392578125,0.0685882568359375,-0.9003448486328125
2024-06-20T18:00:22.629+02:00,4831.247792666667,-0.0615081787109375,0.0794219970703125,-0.90594482421875
2024-06-20T18:00:22.639+02:00,4831.257850666667,-0.0672607421875,0.0625762939453125,-0.9114227294921875
2024-06-20T18:00:22.649+02:00,4831.267907666667,-0.07757568359375,0.0223846435546875,-0.916229248046875
2024-06-20T18:00:22.659+02:00,4831.277965666667,-0.09033203125,0.0018463134765625,-0.9467315673828125
2024-06-20T18:00:22.669+02:00,4831.288022666667,-0.1002960205078125,0.0516815185546875,-0.9644012451171875
2024-06-20T18:00:22.679+02:00,4831.298079666667,-0.1148223876953125,0.1198883056640625,-0.973846435546875
2024-06-20T18:00:22.689+02:00,4831.308137666667,-0.1509552001953125,0.1761322021484375,-1.017898559570312
2024-06-20T18:00:22.699+02:00,4831.318194666667,-0.217041015625,0.204833984375,-1.0504150390625
2024-06-20T18:00:22.710+02:00,4831.328252666667,-0.2972412109375,0.2408447265625,-1.100784301757812
2024-06-20T18:00:22.719+02:00,4831.338309666667,-0.363189697265625,0.319854736328125,-1.122146606445312
2024-06-20T18:00:22.730+02:00,4831.348367666667,-0.3975677490234375,0.43365478515625,-1.028854370117188
2024-06-20T18:00:22.740+02:00,4831.358424666667,-0.416229248046875,0.6927642822265625,-0.900970458984375
2024-06-20T18:00:22.750+02:00,4831.368481666667,-0.434722900390625,1.157623291015625,-0.7603912353515625
2024-06-20T18:00:22.760+02:00,4831.378539666667,-0.3572845458984375,1.505813598632812,-0.61328125
2024-06-20T18:00:22.770+02:00,4831.388596666667,-0.1806793212890625,1.572021484375,-0.5411529541015625
2024-06-20T18:00:22.780+02:00,4831.398654666667,0.0298004150390625,1.572998046875,-0.40899658203125
2024-06-20T18:00:22.790+02:00,4831.408711666667,0.2374420166015625,1.548263549804688,-0.2664947509765625
2024-06-20T18:00:22.800+02:00,4831.418769666667,0.3982696533203125,1.504592895507812,-0.1841583251953125
2024-06-20T18:00:22.810+02:00,4831.428826666667,0.4986419677734375,1.442947387695312,-0.1688690185546875
2024-06-20T18:00:22.820+02:00,4831.438883666667,0.52423095703125,1.3616943359375,-0.01055908203125
2024-06-20T18:00:22.830+02:00,4831.448941666667,0.5121002197265625,1.33984375,0.12921142578125
2024-06-20T18:00:22.840+02:00,4831.458998666667,0.5045166015625,1.33538818359375,0.14801025390625
2024-06-20T18:00:22.851+02:00,4831.469056666667,0.509063720703125,1.374923706054688,0.1680450439453125
2024-06-20T18:00:22.861+02:00,4831.479113666667,0.508087158203125,1.349777221679688,0.11419677734375
2024-06-20T18:00:22.871+02:00,4831.489170666667,0.467254638671875,1.16656494140625,0.049102783203125
2024-06-20T18:00:22.881+02:00,4831.499228666667,0.4009552001953125,0.937896728515625,0.0517578125
2024-06-20T18:00:22.890+02:00,4831.509285666667,0.3792572021484375,0.8344268798828125,0.149169921875
2024-06-20T18:00:22.901+02:00,4831.519343666667,0.4241790771484375,0.9517822265625,0.313446044921875
2024-06-20T18:00:22.911+02:00,4831.529400666667,0.4502410888671875,1.09381103515625,0.341064453125
2024-06-20T18:00:22.921+02:00,4831.539458666667,0.3970947265625,1.036788940429688,0.4112396240234375
2024-06-20T18:00:22.931+02:00,4831.549515666667,0.3938446044921875,0.961669921875,0.635894775390625
2024-06-20T18:00:22.941+02:00,4831.559572666667,0.4915008544921875,0.8860015869140625,0.83514404296875
2024-06-20T18:00:22.951+02:00,4831.569630666667,0.60345458984375,0.846435546875,1.024459838867188
2024-06-20T18:00:22.961+02:00,4831.579687666667,0.704742431640625,0.8541717529296875,1.186126708984375
2024-06-20T18:00:22.971+02:00,4831.589745666667,0.794342041015625,0.8936767578125,1.276138305664062
2024-06-20T18:00:22.981+02:00,4831.599802666667,0.8286590576171875,0.943389892578125,1.21612548828125
2024-06-20T18:00:22.991+02:00,4831.609859666667,0.753936767578125,0.9582061767578125,1.072433471679688
2024-06-20T18:00:23.001+02:00,4831.619919000001,0.6741790771484375,1.0260009765625,1.06707763671875
2024-06-20T18:00:23.011+02:00,4831.629976,0.681854248046875,1.0848388671875,1.126907348632812
2024-06-20T18:00:23.021+02:00,4831.640034,0.7113800048828125,1.038894653320312,1.188690185546875
2024-06-20T18:00:23.031+02:00,4831.650091,0.7336578369140625,0.9448394775390625,1.2598876953125
2024-06-20T18:00:23.041+02:00,4831.660149,0.75848388671875,0.8412322998046875,1.34027099609375
2024-06-20T18:00:23.051+02:00,4831.670206000001,0.7727813720703125,0.7734222412109375,1.416885375976562
2024-06-20T18:00:23.061+02:00,4831.680263,0.7526397705078125,0.7111968994140625,1.4456787109375
2024-06-20T18:00:23.071+02:00,4831.690321,0.7013702392578125,0.65338134765625,1.393829345703125
2024-06-20T18:00:23.081+02:00,4831.700378,0.6206207275390625,0.6057586669921875,1.260955810546875
2024-06-20T18:00:23.092+02:00,4831.710436,0.54132080078125,0.6597747802734375,1.156707763671875
2024-06-20T18:00:23.101+02:00,4831.720493000001,0.5025482177734375,0.7180633544921875,1.076644897460938
2024-06-20T18:00:23.112+02:00,4831.730551000001,0.49200439453125,0.763641357421875,1.05096435546875
2024-06-20T18:00:23.122+02:00,4831.740608,0.501708984375,0.8077239990234375,1.09185791015625
2024-06-20T18:00:23.132+02:00,4831.750665,0.5073699951171875,0.7839813232421875,1.083267211914062
2024-06-20T18:00:23.142+02:00,4831.760723,0.4809112548828125,0.7289581298828125,1.086074829101562
2024-06-20T18:00:23.152+02:00,4831.770780000001,0.4339141845703125,0.6002655029296875,1.0599365234375
2024-06-20T18:00:23.162+02:00,4831.780838000001,0.3773345947265625,0.470489501953125,1.074295043945312
2024-06-20T18:00:23.172+02:00,4831.790895,0.3311309814453125,0.4073486328125,1.085739135742188
2024-06-20T18:00:23.182+02:00,4831.800952000001,0.2831878662109375,0.4410858154296875,1.04498291015625
2024-06-20T18:00:23.192+02:00,4831.81101,0.221832275390625,0.552978515625,0.9080963134765625
2024-06-20T18:00:23.202+02:00,4831.821067,0.155120849609375,0.6286163330078125,0.787322998046875
2024-06-20T18:00:23.212+02:00,4831.831125000001,0.1200714111328125,0.6715850830078125,0.6650390625
2024-06-20T18:00:23.222+02:00,4831.841182,0.128692626953125,0.6817779541015625,0.5774078369140625
2024-06-20T18:00:23.232+02:00,4831.85124,0.1270294189453125,0.6042327880859375,0.4914703369140625
2024-06-20T18:00:23.243+02:00,4831.861297,0.0840606689453125,0.4011993408203125,0.4323577880859375
2024-06-20T18:00:23.252+02:00,4831.871354,0.0220794677734375,0.2028045654296875,0.4794464111328125
2024-06-20T18:00:23.263+02:00,4831.881412000001,-0.0642547607421875,0.179473876953125,0.2956390380859375
2024-06-20T18:00:23.272+02:00,4831.891469,-0.20501708984375,0.34320068359375,-0.0687255859375
2024-06-20T18:00:23.283+02:00,4831.901527,-0.3294677734375,0.600006103515625,-0.110748291015625
2024-06-20T18:00:23.293+02:00,4831.911584,-2.439163208007812,4.665359497070312,-12.67678833007812
2024-06-20T18:00:23.303+02:00,4831.921642,-1.837646484375,2.555267333984375,-2.878005981445312
2024-06-20T18:00:23.313+02:00,4831.931699000001,-2.056976318359375,0.183349609375,-2.505599975585938
2024-06-20T18:00:23.323+02:00,4831.941756,-1.01983642578125,-0.5070037841796875,-1.886520385742188
2024-06-20T18:00:23.333+02:00,4831.951814,0.4794769287109375,-0.0879364013671875,-1.29150390625
2024-06-20T18:00:23.343+02:00,4831.961871,1.158523559570312,-0.2621612548828125,-0.8877105712890625
2024-06-20T18:00:23.361+02:00,4831.971929,1.24078369140625,-0.650054931640625,-0.535736083984375
2024-06-20T18:00:23.363+02:00,4831.981986000001,0.94293212890625,-0.383544921875,-0.184600830078125
2024-06-20T18:00:23.373+02:00,4831.992044000001,0.63592529296875,-0.101806640625,-0.0772705078125
2024-06-20T18:00:23.383+02:00,4832.002101,0.454986572265625,-0.0018768310546875,-0.08221435546875
2024-06-20T18:00:23.393+02:00,4832.012158,0.4355621337890625,0.10003662109375,-0.155029296875
2024-06-20T18:00:23.403+02:00,4832.022216,0.63531494140625,0.29443359375,-0.273590087890625
2024-06-20T18:00:23.414+02:00,4832.032273000001,0.88677978515625,0.4898529052734375,-0.424591064453125
2024-06-20T18:00:23.423+02:00,4832.042331000001,1.0291748046875,0.561767578125,-0.5658416748046875
2024-06-20T18:00:23.434+02:00,4832.052388,0.994903564453125,0.473236083984375,-0.6269378662109375
2024-06-20T18:00:23.444+02:00,4832.062445,0.850738525390625,0.30645751953125,-0.633453369140625
2024-06-20T18:00:23.454+02:00,4832.072503,0.7197418212890625,0.2010955810546875,-0.5789794921875
2024-06-20T18:00:23.464+02:00,4832.082560000001,0.62225341796875,0.15679931640625,-0.5466156005859375
2024-06-20T18:00:23.474+02:00,4832.092618000001,0.5233001708984375,0.1233062744140625,-0.550384521484375
2024-06-20T18:00:23.484+02:00,4832.102675,0.4300384521484375,0.08013916015625,-0.572723388671875
2024-06-20T18:00:23.494+02:00,4832.112733,0.33050537109375,0.0775604248046875,-0.6341552734375
2024-06-20T18:00:23.504+02:00,4832.12279,0.214752197265625,0.1357574462890625,-0.73095703125
2024-06-20T18:00:23.514+02:00,4832.132847,0.060638427734375,0.2199554443359375,-0.8173065185546875
2024-06-20T18:00:23.524+02:00,4832.142905000001,-0.1070556640625,0.2578582763671875,-0.8182525634765625
2024-06-20T18:00:23.534+02:00,4832.152962,-0.24810791015625,0.1694793701171875,-0.7214508056640625
2024-06-20T18:00:23.544+02:00,4832.16302,-0.3428955078125,0.07843017578125,-0.4266815185546875
2024-06-20T18:00:23.554+02:00,4832.173077,-0.4081573486328125,0.141937255859375,-0.0545196533203125
2024-06-20T18:00:23.564+02:00,4832.183134,-0.42767333984375,0.2886962890625,0.2038421630859375
2024-06-20T18:00:23.574+02:00,4832.193192000001,-0.4128570556640625,0.4405670166015625,0.2691192626953125
2024-06-20T18:00:23.584+02:00,4832.203249,-0.38714599609375,0.5722503662109375,0.1013641357421875
2024-06-20T18:00:23.595+02:00,4832.213307,-0.3798370361328125,0.5408172607421875,-0.21160888671875
2024-06-20T18:00:23.605+02:00,4832.223364,-0.3764801025390625,0.4296722412109375,-0.529144287109375
2024-06-20T18:00:23.615+02:00,4832.233422,-0.34039306640625,0.3430938720703125,-0.685272216796875
2024-06-20T18:00:23.625+02:00,4832.243479000001,-0.2950439453125,0.240997314453125,-0.687347412109375
2024-06-20T18:00:23.635+02:00,4832.253536,-0.279022216796875,0.18817138671875,-0.6558990478515625
2024-06-20T18:00:23.645+02:00,4832.263594,-0.26995849609375,0.188690185546875,-0.5579071044921875
2024-06-20T18:00:23.655+02:00,4832.273651,-0.241180419921875,0.224151611328125,-0.4215545654296875
2024-06-20T18:00:23.665+02:00,4832.283709,-0.176910400390625,0.2830047607421875,-0.298248291015625
2024-06-20T18:00:23.675+02:00,4832.293766000001,-0.0832366943359375,0.35986328125,-0.170928955078125
2024-06-20T18:00:23.685+02:00,4832.303824000001,0.013824462890625,0.455474853515625,-0.0212860107421875
2024-06-20T18:00:23.695+02:00,4832.313881,0.1064910888671875,0.6338653564453125,0.0708160400390625
2024-06-20T18:00:23.705+02:00,4832.323938,0.205047607421875,1.014617919921875,0.1018218994140625
2024-06-20T18:00:23.715+02:00,4832.333996,0.302947998046875,1.50787353515625,0.026580810546875
2024-06-20T18:00:23.725+02:00,4832.344053000001,0.3471221923828125,1.790817260742188,-0.09136962890625
2024-06-20T18:00:23.735+02:00,4832.354111000001,0.3313751220703125,1.612014770507812,-0.0862884521484375
2024-06-20T18:00:23.745+02:00,4832.364168,0.290191650390625,1.1949462890625,-0.02215576171875
2024-06-20T18:00:23.755+02:00,4832.374225,0.2526702880859375,0.9966278076171875,0.154205322265625
2024-06-20T18:00:23.765+02:00,4832.384283,0.2330322265625,1.217086791992188,0.1812286376953125
2024-06-20T18:00:23.780+02:00,4832.394340000001,0.12799072265625,1.76824951171875,-0.1287994384765625
2024-06-20T18:00:23.786+02:00,4832.404398000001,-0.1485748291015625,2.246612548828125,-0.457855224609375
2024-06-20T18:00:23.796+02:00,4832.414455,-0.366912841796875,2.482559204101562,-0.5090179443359375
2024-06-20T18:00:23.805+02:00,4832.424513,-0.3531036376953125,2.468460083007812,-0.535400390625
2024-06-20T18:00:23.816+02:00,4832.43457,-0.261932373046875,2.252410888671875,-0.5482940673828125
2024-06-20T18:00:23.825+02:00,4832.444627,-0.2059173583984375,2.063751220703125,-0.49603271484375
2024-06-20T18:00:23.836+02:00,4832.454685000001,-0.1399688720703125,1.9197998046875,-0.403717041015625
2024-06-20T18:00:23.846+02:00,4832.464742,-0.07720947265625,1.716110229492188,-0.3338775634765625
2024-06-20T18:00:23.859+02:00,4832.4748,-0.0587005615234375,1.476760864257812,-0.36053466796875
2024-06-20T18:00:23.866+02:00,4832.484857,-0.1001434326171875,1.328277587890625,-0.429901123046875
2024-06-20T18:00:23.876+02:00,4832.494915,-0.1866455078125,1.313003540039062,-0.5183563232421875
2024-06-20T18:00:23.886+02:00,4832.504972000001,-0.28314208984375,1.321624755859375,-0.5762481689453125
2024-06-20T18:00:23.896+02:00,4832.515029,-0.375244140625,1.251815795898438,-0.56414794921875
2024-06-20T18:00:23.906+02:00,4832.525087,-0.4248504638671875,1.12353515625,-0.5556793212890625
2024-06-20T18:00:23.917+02:00,4832.535144,-0.4336395263671875,0.9969482421875,-0.52569580078125
2024-06-20T18:00:23.926+02:00,4832.545202,-0.4610137939453125,0.8763427734375,-0.497955322265625
2024-06-20T18:00:23.936+02:00,4832.555259000001,-0.50830078125,0.786285400390625,-0.5471954345703125
2024-06-20T18:00:23.947+02:00,4832.565316,-0.557708740234375,0.7716217041015625,-0.5800018310546875
2024-06-20T18:00:23.957+02:00,4832.575374,-0.5999603271484375,0.8284149169921875,-0.598876953125
2024-06-20T18:00:23.967+02:00,4832.585431,-0.6264495849609375,0.877593994140625,-0.5738067626953125
2024-06-20T18:00:23.977+02:00,4832.595489,-0.657501220703125,0.856658935546875,-0.52825927734375
2024-06-20T18:00:23.987+02:00,4832.605546000001,-0.675140380859375,0.7694549560546875,-0.5225830078125
2024-06-20T18:00:23.997+02:00,4832.615603125,-0.6683807373046875,0.696624755859375,-0.503631591796875
2024-06-20T18:00:24.007+02:00,4832.625660125001,-0.7050628662109375,0.6594696044921875,-0.5045013427734375
2024-06-20T18:00:24.017+02:00,4832.635718125,-0.74456787109375,0.6551666259765625,-0.531829833984375
2024-06-20T18:00:24.027+02:00,4832.645775125,-0.7700958251953125,0.6915130615234375,-0.5006103515625
2024-06-20T18:00:24.037+02:00,4832.655832125,-0.7876739501953125,0.690826416015625,-0.48443603515625
2024-06-20T18:00:24.047+02:00,4832.665890125,-0.77734375,0.66943359375,-0.48822021484375
2024-06-20T18:00:24.057+02:00,4832.675947125001,-0.745574951171875,0.6668548583984375,-0.4666595458984375
2024-06-20T18:00:24.067+02:00,4832.686005125001,-0.7380828857421875,0.669464111328125,-0.48944091796875
2024-06-20T18:00:24.077+02:00,4832.696062125,-0.7415313720703125,0.6651153564453125,-0.5117340087890625
2024-06-20T18:00:24.087+02:00,4832.706119125,-0.743988037109375,0.6727447509765625,-0.512847900390625
2024-06-20T18:00:24.097+02:00,4832.716177125,-0.7401123046875,0.6616973876953125,-0.506134033203125
2024-06-20T18:00:24.108+02:00,4832.726234125001,-0.72357177734375,0.6195068359375,-0.507598876953125
2024-06-20T18:00:24.118+02:00,4832.736292125001,-0.7070159912109375,0.57757568359375,-0.5051422119140625
2024-06-20T18:00:24.128+02:00,4832.746349125,-0.6995849609375,0.53955078125,-0.4775390625
2024-06-20T18:00:24.138+02:00,4832.756407125,-0.7039642333984375,0.5294189453125,-0.4368743896484375
2024-06-20T18:00:24.149+02:00,4832.766464125,-0.7116546630859375,0.5851287841796875,-0.4161834716796875
2024-06-20T18:00:24.158+02:00,4832.776521125001,-0.7243499755859375,0.64532470703125,-0.411773681640625
2024-06-20T18:00:24.168+02:00,4832.786579125001,-0.7703094482421875,0.62298583984375,-0.4268035888671875
2024-06-20T18:00:24.178+02:00,4832.796636125,-0.8260955810546875,0.5999908447265625,-0.4515380859375
2024-06-20T18:00:24.188+02:00,4832.806694125,-0.840362548828125,0.56097412109375,-0.4537353515625
2024-06-20T18:00:24.198+02:00,4832.816751125,-0.837493896484375,0.48443603515625,-0.4344940185546875
2024-06-20T18:00:24.208+02:00,4832.826809125,-0.80682373046875,0.4681243896484375,-0.432586669921875
2024-06-20T18:00:24.218+02:00,4832.836866125001,-0.7906341552734375,0.505645751953125,-0.3822174072265625
2024-06-20T18:00:24.228+02:00,4832.846923125,-0.8174896240234375,0.521820068359375,-0.384246826171875
2024-06-20T18:00:24.238+02:00,4832.856981125,-0.8507843017578125,0.53717041015625,-0.3445892333984375
2024-06-20T18:00:24.248+02:00,4832.867038125,-0.9223785400390625,0.575958251953125,-0.3442840576171875
2024-06-20T18:00:24.258+02:00,4832.877096125,-1.019271850585938,0.6474151611328125,-0.3488922119140625
2024-06-20T18:00:24.268+02:00,4832.887153125001,-1.064208984375,0.78204345703125,-0.2655487060546875
2024-06-20T18:00:24.278+02:00,4832.897210125,-1.103988647460938,0.7316436767578125,-0.282073974609375
2024-06-20T18:00:24.289+02:00,4832.907268125,-1.04168701171875,0.466400146484375,-0.51043701171875
2024-06-20T18:00:24.299+02:00,4832.917325125,-0.8696746826171875,0.3036041259765625,-0.4951171875
2024-06-20T18:00:24.309+02:00,4832.927383125,-0.888885498046875,0.3567657470703125,-0.41668701171875
2024-06-20T18:00:24.319+02:00,4832.937440125001,-0.9813690185546875,0.5037689208984375,-0.341949462890625
2024-06-20T18:00:24.330+02:00,4832.947498125,-0.9937286376953125,0.5766143798828125,-0.3744354248046875
2024-06-20T18:00:24.341+02:00,4832.957555125,-0.9411163330078125,0.614898681640625,-0.4522552490234375
2024-06-20T18:00:24.359+02:00,4832.967612125,-0.8684234619140625,0.5802001953125,-0.45538330078125
2024-06-20T18:00:24.360+02:00,4832.977670125,-0.852996826171875,0.4898223876953125,-0.482940673828125
2024-06-20T18:00:24.369+02:00,4832.987727125001,-0.8450775146484375,0.3907928466796875,-0.501220703125
2024-06-20T18:00:24.379+02:00,4832.997785125001,-0.8217926025390625,0.4214630126953125,-0.433502197265625
2024-06-20T18:00:24.389+02:00,4833.007842125,-0.8542938232421875,0.5162200927734375,-0.50787353515625
2024-06-20T18:00:24.399+02:00,4833.017899125,-0.89453125,0.5634765625,-0.7314300537109375
2024-06-20T18:00:24.409+02:00,4833.027957125,-0.8088226318359375,0.5318603515625,-0.47833251953125
2024-06-20T18:00:24.419+02:00,4833.038014125001,-0.8033447265625,0.5330047607421875,-0.32061767578125
2024-06-20T18:00:24.430+02:00,4833.048072125001,-0.78680419921875,0.484222412109375,-0.3018646240234375
2024-06-20T18:00:24.439+02:00,4833.058129125,-0.7666778564453125,0.4805755615234375,-0.41058349609375
2024-06-20T18:00:24.449+02:00,4833.068187125,-0.8047332763671875,0.574798583984375,-0.4734039306640625
2024-06-20T18:00:24.459+02:00,4833.078244125,-0.8940887451171875,0.62799072265625,-0.5458831787109375
2024-06-20T18:00:24.469+02:00,4833.088301125001,-0.9280548095703125,0.611541748046875,-0.578369140625
2024-06-20T18:00:24.480+02:00,4833.098359125001,-0.93121337890625,0.6023406982421875,-0.612060546875
2024-06-20T18:00:24.490+02:00,4833.108416125,-0.947845458984375,0.581573486328125,-0.6742095947265625
2024-06-20T18:00:24.500+02:00,4833.118474125,-0.972747802734375,0.525665283203125,-0.7132568359375
2024-06-20T18:00:24.510+02:00,4833.128531125,-0.986602783203125,0.497406005859375,-0.6532135009765625
2024-06-20T18:00:24.520+02:00,4833.138589125,-0.9851226806640625,0.593505859375,-0.546417236328125
2024-06-20T18:00:24.530+02:00,4833.148646125001,-0.918670654296875,0.7136993408203125,-0.482208251953125
2024-06-20T18:00:24.540+02:00,4833.158703125,-0.849639892578125,0.8181915283203125,-0.461822509765625
2024-06-20T18:00:24.550+02:00,4833.168761125,-0.8299560546875,0.882354736328125,-0.5283660888671875
2024-06-20T18:00:24.560+02:00,4833.178818125,-0.8146820068359375,0.8869171142578125,-0.593017578125
2024-06-20T18:00:24.570+02:00,4833.188876125,-0.8484954833984375,0.848846435546875,-0.64703369140625
2024-06-20T18:00:24.580+02:00,4833.198933125001,-0.8804168701171875,0.7745819091796875,-0.68780517578125
2024-06-20T18:00:24.590+02:00,4833.208991125,-0.8842620849609375,0.742401123046875,-0.6834716796875
2024-06-20T18:00:24.600+02:00,4833.219048125,-0.853240966796875,0.70013427734375,-0.634796142578125
2024-06-20T18:00:24.610+02:00,4833.229105125,-0.8096466064453125,0.6498565673828125,-0.5715789794921875
2024-06-20T18:00:24.620+02:00,4833.239163125,-0.7487335205078125,0.7182464599609375,-0.4565582275390625
2024-06-20T18:00:24.630+02:00,4833.249220125001,-0.701446533203125,0.87225341796875,-0.38568115234375
2024-06-20T18:00:24.641+02:00,4833.259278125,-0.6351470947265625,0.987701416015625,-0.3801422119140625
2024-06-20T18:00:24.650+02:00,4833.269335125,-0.55792236328125,1.0201416015625,-0.467193603515625
2024-06-20T18:00:24.661+02:00,4833.279393125,-0.4905853271484375,0.9872589111328125,-0.528228759765625
2024-06-20T18:00:24.671+02:00,4833.289450125,-0.4806671142578125,0.88079833984375,-0.542755126953125
2024-06-20T18:00:24.681+02:00,4833.299507125001,-0.520050048828125,0.76873779296875,-0.55694580078125
2024-06-20T18:00:24.691+02:00,4833.309565125001,-0.5483856201171875,0.704559326171875,-0.5457305908203125
2024-06-20T18:00:24.701+02:00,4833.319622125,-0.527923583984375,0.6763763427734375,-0.5229339599609375
2024-06-20T18:00:24.711+02:00,4833.329680125,-0.4712982177734375,0.6473846435546875,-0.4385833740234375
2024-06-20T18:00:24.721+02:00,4833.339737125,-0.4061431884765625,0.67486572265625,-0.314849853515625
2024-06-20T18:00:24.731+02:00,4833.349794125001,-0.3301544189453125,0.7363433837890625,-0.260162353515625
2024-06-20T18:00:24.741+02:00,4833.359852125001,-0.2481231689453125,0.76556396484375,-0.19598388671875
2024-06-20T18:00:24.751+02:00,4833.369909125,-0.2194976806640625,0.7958221435546875,-0.2480010986328125
2024-06-20T18:00:24.761+02:00,4833.379967125,-0.232818603515625,0.8186187744140625,-0.3322906494140625
2024-06-20T18:00:24.771+02:00,4833.390024125,-0.26605224609375,0.84075927734375,-0.36346435546875
2024-06-20T18:00:24.781+02:00,4833.400082125,-0.311767578125,0.8418121337890625,-0.3912506103515625
2024-06-20T18:00:24.791+02:00,4833.410139125001,-0.3590087890625,0.784088134765625,-0.4215850830078125
2024-06-20T18:00:24.801+02:00,4833.420196125,-0.3699798583984375,0.7679290771484375,-0.4368743896484375
2024-06-20T18:00:24.811+02:00,4833.430254125,-0.342498779296875,0.8072357177734375,-0.3991851806640625
2024-06-20T18:00:24.821+02:00,4833.440311125,-0.306732177734375,0.7961578369140625,-0.3814239501953125
2024-06-20T18:00:24.832+02:00,4833.450369125,-0.2774505615234375,0.7639312744140625,-0.3339691162109375
2024-06-20T18:00:24.842+02:00,4833.460426125001,-0.236297607421875,0.7442474365234375,-0.289581298828125
2024-06-20T18:00:24.852+02:00,4833.470484125,-0.169219970703125,0.754119873046875,-0.295562744140625
2024-06-20T18:00:24.862+02:00,4833.480541125,-0.08453369140625,0.74359130859375,-0.275054931640625
2024-06-20T18:00:24.872+02:00,4833.490598125,-0.008819580078125,0.6666259765625,-0.2540130615234375
2024-06-20T18:00:24.882+02:00,4833.500656125,0.0646514892578125,0.6240692138671875,-0.2369384765625
2024-06-20T18:00:24.892+02:00,4833.510713125001,0.1346588134765625,0.6757659912109375,-0.2274322509765625
2024-06-20T18:00:24.902+02:00,4833.520771125,0.2182464599609375,0.7445220947265625,-0.327056884765625
2024-06-20T18:00:24.912+02:00,4833.530828125,0.312744140625,0.7902069091796875,-0.38067626953125
2024-06-20T18:00:24.922+02:00,4833.540886125001,0.3774566650390625,0.8000335693359375,-0.402557373046875
2024-06-20T18:00:24.932+02:00,4833.550943125,0.3873443603515625,0.7451629638671875,-0.4177093505859375
2024-06-20T18:00:24.942+02:00,4833.561000125001,0.3509368896484375,0.60711669921875,-0.2946319580078125
2024-06-20T18:00:24.952+02:00,4833.571058125,0.3167877197265625,0.50335693359375,-0.1761627197265625
2024-06-20T18:00:24.962+02:00,4833.581115125,0.3314208984375,0.3953094482421875,-0.0797271728515625
2024-06-20T18:00:24.972+02:00,4833.591173125,0.3950653076171875,0.2557830810546875,-0.00787353515625
2024-06-20T18:00:24.982+02:00,4833.601230125,0.46923828125,0.1822662353515625,-0.0266571044921875
2024-06-20T18:00:24.992+02:00,4833.611287125001,0.490264892578125,0.70037841796875,0.22088623046875
2024-06-20T18:00:25.003+02:00,4833.621345291667,0.43572998046875,1.57061767578125,0.361572265625
2024-06-20T18:00:25.013+02:00,4833.631402291667,0.340423583984375,1.861495971679688,0.3765869140625
2024-06-20T18:00:25.023+02:00,4833.641460291667,0.1521759033203125,1.290267944335938,0.25701904296875
2024-06-20T18:00:25.033+02:00,4833.651517291667,0.0536041259765625,1.032623291015625,-0.166229248046875
2024-06-20T18:00:25.043+02:00,4833.661575291667,0.04827880859375,1.080230712890625,-0.305023193359375
2024-06-20T18:00:25.053+02:00,4833.671632291667,0.0468292236328125,0.785736083984375,0.12933349609375
2024-06-20T18:00:25.063+02:00,4833.681689291667,0.0683746337890625,0.490509033203125,0.1121673583984375
2024-06-20T18:00:25.073+02:00,4833.691747291667,0.107177734375,0.6275177001953125,0.0650634765625
2024-06-20T18:00:25.083+02:00,4833.701804291667,0.0968017578125,0.8559417724609375,0.0762481689453125
2024-06-20T18:00:25.093+02:00,4833.711862291667,0.0422821044921875,0.9460601806640625,0.0455169677734375
2024-06-20T18:00:25.103+02:00,4833.721919291667,-0.0108489990234375,1.175445556640625,0.045562744140625
2024-06-20T18:00:25.113+02:00,4833.731977291667,0.0093994140625,1.359237670898438,0.076080322265625
2024-06-20T18:00:25.123+02:00,4833.742034291667,0.08837890625,1.3411865234375,0.063018798828125
2024-06-20T18:00:25.133+02:00,4833.752091291667,0.13995361328125,1.224945068359375,0.0146942138671875
2024-06-20T18:00:25.143+02:00,4833.762149291667,0.1663055419921875,1.021621704101562,0.03521728515625
2024-06-20T18:00:25.153+02:00,4833.772206291667,0.183929443359375,0.8327484130859375,0.0781707763671875
2024-06-20T18:00:25.163+02:00,4833.782264291667,0.203338623046875,0.735931396484375,0.11981201171875
2024-06-20T18:00:25.173+02:00,4833.792321291667,0.215789794921875,0.730560302734375,0.07037353515625
2024-06-20T18:00:25.183+02:00,4833.802379291667,0.2249603271484375,0.7577972412109375,-0.0258331298828125
2024-06-20T18:00:25.194+02:00,4833.812436291667,0.2286529541015625,0.8055267333984375,-0.0832061767578125
2024-06-20T18:00:25.204+02:00,4833.822493291667,0.227264404296875,0.816070556640625,-0.0769805908203125
2024-06-20T18:00:25.214+02:00,4833.832551291667,0.2366943359375,0.7664031982421875,-0.0428924560546875
2024-06-20T18:00:25.224+02:00,4833.842608291667,0.25506591796875,0.749755859375,0.0587310791015625
2024-06-20T18:00:25.234+02:00,4833.852666291667,0.27972412109375,0.7675628662109375,0.125396728515625
2024-06-20T18:00:25.244+02:00,4833.862723291667,0.29644775390625,0.8097076416015625,0.1182861328125
2024-06-20T18:00:25.254+02:00,4833.872780291667,0.30010986328125,0.892120361328125,0.07275390625
2024-06-20T18:00:25.264+02:00,4833.882838291667,0.3008270263671875,1.002517700195312,0.0138702392578125
2024-06-20T18:00:25.274+02:00,4833.892895291667,0.300018310546875,1.083786010742188,-0.057403564453125
2024-06-20T18:00:25.284+02:00,4833.902953291667,0.2933502197265625,1.11553955078125,-0.1046905517578125
2024-06-20T18:00:25.294+02:00,4833.913010291667,0.2904510498046875,1.114410400390625,-0.067840576171875
2024-06-20T18:00:25.304+02:00,4833.923068291667,0.306640625,1.102920532226562,0.0140380859375
2024-06-20T18:00:25.314+02:00,4833.933125291667,0.331756591796875,1.138031005859375,0.107086181640625
2024-06-20T18:00:25.324+02:00,4833.943182291667,0.3602752685546875,1.189987182617188,0.1257781982421875
2024-06-20T18:00:25.334+02:00,4833.953240291667,0.383941650390625,1.189651489257812,0.07977294921875
2024-06-20T18:00:25.344+02:00,4833.963297291667,0.41241455078125,1.1474609375,0.031829833984375
2024-06-20T18:00:25.354+02:00,4833.973355291667,0.41973876953125,1.082138061523438,0.0014801025390625
2024-06-20T18:00:25.365+02:00,4833.983412291667,0.416412353515625,0.98297119140625,0.0004119873046875
2024-06-20T18:00:25.375+02:00,4833.993470291667,0.4161529541015625,0.9134521484375,0.064910888671875
2024-06-20T18:00:25.385+02:00,4834.003527291667,0.4185943603515625,0.870330810546875,0.11785888671875
2024-06-20T18:00:25.395+02:00,4834.013584291667,0.4229583740234375,0.831390380859375,0.09228515625
2024-06-20T18:00:25.405+02:00,4834.023642291667,0.42327880859375,0.7941131591796875,0.0042877197265625
2024-06-20T18:00:25.415+02:00,4834.033699291667,0.40313720703125,0.7677459716796875,-0.070648193359375
2024-06-20T18:00:25.425+02:00,4834.043757291667,0.3684539794921875,0.7755126953125,-0.14581298828125
2024-06-20T18:00:25.435+02:00,4834.053814291667,0.325653076171875,0.766510009765625,-0.2185821533203125
2024-06-20T18:00:25.445+02:00,4834.063872291667,0.2828521728515625,0.780181884765625,-0.2203216552734375
2024-06-20T18:00:25.455+02:00,4834.073929291667,0.2390289306640625,0.8051910400390625,-0.214202880859375
2024-06-20T18:00:25.465+02:00,4834.083986291667,0.196075439453125,0.8612060546875,-0.1723785400390625
2024-06-20T18:00:25.475+02:00,4834.094044291667,0.156585693359375,0.940582275390625,-0.1548614501953125
2024-06-20T18:00:25.485+02:00,4834.104101291667,0.138641357421875,1.055206298828125,-0.08697509765625
2024-06-20T18:00:25.495+02:00,4834.114159291667,0.11273193359375,1.206802368164062,-0.0130157470703125
2024-06-20T18:00:25.505+02:00,4834.124216291667,0.0799713134765625,1.13189697265625,-0.2072601318359375
2024-06-20T18:00:25.515+02:00,4834.134273291667,0.0606536865234375,0.940582275390625,-0.4098052978515625
2024-06-20T18:00:25.525+02:00,4834.144331291667,0.0576934814453125,0.768646240234375,-0.585479736328125
2024-06-20T18:00:25.536+02:00,4834.154388291667,0.0753631591796875,0.605560302734375,-0.62786865234375
2024-06-20T18:00:25.546+02:00,4834.164446291667,0.0977325439453125,0.374603271484375,-0.6474456787109375
2024-06-20T18:00:25.555+02:00,4834.174503291667,0.1220245361328125,0.2340545654296875,-0.552215576171875
2024-06-20T18:00:25.566+02:00,4834.184561291667,0.1185455322265625,0.0964508056640625,-0.65118408203125
2024-06-20T18:00:25.576+02:00,4834.194618291667,0.098785400390625,-0.0381622314453125,-0.868682861328125
2024-06-20T18:00:25.586+02:00,4834.204675291667,0.07568359375,0.0019073486328125,-1.015182495117188
2024-06-20T18:00:25.596+02:00,4834.214733291667,0.00213623046875,0.135040283203125,-1.043701171875
2024-06-20T18:00:25.606+02:00,4834.224790291667,-0.1114044189453125,0.3136138916015625,-0.976348876953125
2024-06-20T18:00:25.616+02:00,4834.234848291667,-0.1763458251953125,0.5072174072265625,-0.88018798828125
2024-06-20T18:00:25.626+02:00,4834.244905291667,-0.143157958984375,0.6422119140625,-0.7234039306640625
2024-06-20T18:00:25.636+02:00,4834.254963291667,0.0093536376953125,0.761260986328125,-0.553924560546875
2024-06-20T18:00:25.646+02:00,4834.265020291667,0.15765380859375,0.79644775390625,-0.5030517578125
2024-06-20T18:00:25.656+02:00,4834.275077291667,0.244842529296875,0.8219451904296875,-0.4334259033203125
2024-06-20T18:00:25.666+02:00,4834.285135291667,0.2530517578125,0.8471221923828125,-0.410064697265625
2024-06-20T18:00:25.676+02:00,4834.295192291667,0.22064208984375,0.88262939453125,-0.455230712890625
2024-06-20T18:00:25.686+02:00,4834.305250291667,0.1825103759765625,0.9961700439453125,-0.471160888671875
2024-06-20T18:00:25.696+02:00,4834.315307291667,0.13751220703125,1.182235717773438,-0.4598388671875
2024-06-20T18:00:25.707+02:00,4834.325365291667,0.0948944091796875,1.26873779296875,-0.4848175048828125
2024-06-20T18:00:25.717+02:00,4834.335422291667,0.0875091552734375,1.290512084960938,-0.5213470458984375
2024-06-20T18:00:25.727+02:00,4834.345479291667,0.1137237548828125,1.310714721679688,-0.49212646484375
2024-06-20T18:00:25.737+02:00,4834.355537291667,0.1318817138671875,1.308914184570312,-0.470428466796875
2024-06-20T18:00:25.747+02:00,4834.365594291667,0.1343994140625,1.266860961914062,-0.4653778076171875
2024-06-20T18:00:25.757+02:00,4834.375652291667,0.1368408203125,1.210479736328125,-0.3976593017578125
2024-06-20T18:00:25.767+02:00,4834.385709291667,0.1634063720703125,1.11993408203125,-0.34283447265625
2024-06-20T18:00:25.777+02:00,4834.395767291667,0.2030487060546875,1.022018432617188,-0.313446044921875
2024-06-20T18:00:25.787+02:00,4834.405824291667,0.2267608642578125,0.981964111328125,-0.2471923828125
2024-06-20T18:00:25.797+02:00,4834.415881291667,0.23028564453125,0.9675750732421875,-0.226287841796875
2024-06-20T18:00:25.807+02:00,4834.425939291667,0.2633819580078125,0.9688720703125,-0.1671142578125
2024-06-20T18:00:25.817+02:00,4834.435996291667,0.278167724609375,0.8818511962890625,-0.1876068115234375
2024-06-20T18:00:25.827+02:00,4834.446054291667,0.26263427734375,0.7801666259765625,-0.2643585205078125
2024-06-20T18:00:25.837+02:00,4834.456111291667,0.2151641845703125,0.724456787109375,-0.3172149658203125
2024-06-20T18:00:25.847+02:00,4834.466169291667,0.1442718505859375,0.6647186279296875,-0.362640380859375
2024-06-20T18:00:25.857+02:00,4834.476226291667,0.0837554931640625,0.5957794189453125,-0.41064453125
2024-06-20T18:00:25.867+02:00,4834.486283291667,0.0443572998046875,0.52679443359375,-0.4290924072265625
2024-06-20T18:00:25.877+02:00,4834.496341291667,0.01824951171875,0.49993896484375,-0.4017791748046875
2024-06-20T18:00:25.888+02:00,4834.506398291667,0.022247314453125,0.5382080078125,-0.3046722412109375
2024-06-20T18:00:25.898+02:00,4834.516456291667,0.0451812744140625,0.61712646484375,-0.1497955322265625
2024-06-20T18:00:25.908+02:00,4834.526513291667,0.0764617919921875,0.6813201904296875,-0.11419677734375
2024-06-20T18:00:25.918+02:00,4834.536571291667,0.1045074462890625,0.7860107421875,-0.110015869140625
2024-06-20T18:00:25.928+02:00,4834.546628291667,0.0912017822265625,0.9319000244140625,-0.1100311279296875
2024-06-20T18:00:25.938+02:00,4834.556685291667,0.01263427734375,1.039688110351562,-0.1119842529296875
2024-06-20T18:00:25.948+02:00,4834.566743291667,-0.0669403076171875,1.144760131835938,-0.1078948974609375
2024-06-20T18:00:25.958+02:00,4834.576800291667,-0.1336517333984375,1.270767211914062,0.0134124755859375
2024-06-20T18:00:25.968+02:00,4834.586858291667,-0.1940460205078125,1.367752075195312,0.128570556640625
2024-06-20T18:00:25.978+02:00,4834.596915291667,-0.222198486328125,1.430191040039062,0.1826171875
2024-06-20T18:00:25.988+02:00,4834.606972291667,-0.219268798828125,1.529403686523438,0.2109222412109375
2024-06-20T18:00:25.998+02:00,4834.617030625001,-0.1775665283203125,1.652938842773438,0.1993865966796875
2024-06-20T18:00:26.008+02:00,4834.627087625,-0.101715087890625,1.735565185546875,0.1307525634765625
2024-06-20T18:00:26.018+02:00,4834.637145625,-0.0005340576171875,1.675918579101562,0.033203125
2024-06-20T18:00:26.028+02:00,4834.647202625,0.11834716796875,1.522064208984375,-0.0222015380859375
2024-06-20T18:00:26.038+02:00,4834.657260625,0.227691650390625,1.320709228515625,-0.071685791015625
2024-06-20T18:00:26.048+02:00,4834.667317625001,0.294677734375,1.171417236328125,-0.0916900634765625
2024-06-20T18:00:26.059+02:00,4834.677374625,0.3103790283203125,1.148330688476562,-0.1048583984375
2024-06-20T18:00:26.069+02:00,4834.687432625,0.3033447265625,1.120880126953125,-0.0169677734375
2024-06-20T18:00:26.079+02:00,4834.697489625,0.289154052734375,1.069015502929688,-0.0013580322265625
2024-06-20T18:00:26.089+02:00,4834.707547625,0.283233642578125,0.9773712158203125,-0.0418853759765625
2024-06-20T18:00:26.099+02:00,4834.717604625001,0.2479400634765625,0.8848419189453125,-0.0694732666015625
2024-06-20T18:00:26.109+02:00,4834.727662625,0.1867218017578125,0.81640625,-0.114501953125
2024-06-20T18:00:26.119+02:00,4834.737719625,0.1237335205078125,0.792938232421875,-0.1554107666015625
2024-06-20T18:00:26.129+02:00,4834.747776625,0.066314697265625,0.797332763671875,-0.184844970703125
2024-06-20T18:00:26.139+02:00,4834.757834625,0.022491455078125,0.81610107421875,-0.1995697021484375
2024-06-20T18:00:26.149+02:00,4834.767891625001,-0.0137786865234375,0.831512451171875,-0.1770782470703125
2024-06-20T18:00:26.159+02:00,4834.777949625,-0.043792724609375,0.84857177734375,-0.13848876953125
2024-06-20T18:00:26.169+02:00,4834.788006625,-0.06121826171875,0.8459625244140625,-0.08416748046875
2024-06-20T18:00:26.179+02:00,4834.798064625001,-0.0709991455078125,0.8182373046875,-0.0594329833984375
2024-06-20T18:00:26.189+02:00,4834.808121625,-0.095916748046875,0.7910614013671875,-0.0989532470703125
2024-06-20T18:00:26.199+02:00,4834.818178625001,-0.139373779296875,0.7987060546875,-0.2103424072265625
2024-06-20T18:00:26.209+02:00,4834.828236625,-0.2011566162109375,0.8525848388671875,-0.3161468505859375
2024-06-20T18:00:26.219+02:00,4834.838293625,-0.275482177734375,0.908355712890625,-0.351318359375
2024-06-20T18:00:26.230+02:00,4834.848351625,-0.3382110595703125,0.993988037109375,-0.34100341796875
2024-06-20T18:00:26.240+02:00,4834.858408625,-0.3813934326171875,1.09814453125,-0.2868804931640625
2024-06-20T18:00:26.250+02:00,4834.868466625,-0.409881591796875,1.17352294921875,-0.2339630126953125
2024-06-20T18:00:26.260+02:00,4834.878523625001,-0.4176483154296875,1.285903930664062,-0.173614501953125
2024-06-20T18:00:26.270+02:00,4834.888580625,-0.43487548828125,1.440643310546875,-0.1308746337890625
2024-06-20T18:00:26.280+02:00,4834.898638625,-0.470489501953125,1.557418823242188,-0.1269378662109375
2024-06-20T18:00:26.290+02:00,4834.908695625,-0.5188140869140625,1.624069213867188,-0.1152801513671875
2024-06-20T18:00:26.300+02:00,4834.918753625,-0.5666351318359375,1.581680297851562,-0.1442413330078125
2024-06-20T18:00:26.310+02:00,4834.928810625001,-0.572265625,1.46331787109375,-0.1917266845703125
2024-06-20T18:00:26.320+02:00,4834.938868625,-0.524200439453125,1.365158081054688,-0.141204833984375
2024-06-20T18:00:26.330+02:00,4834.948925625,-0.4268798828125,1.2413330078125,-0.0948486328125
2024-06-20T18:00:26.340+02:00,4834.958982625,-0.2912750244140625,1.1396484375,-0.0578765869140625
2024-06-20T18:00:26.350+02:00,4834.969040625,-0.143096923828125,1.097579956054688,-0.00616455078125
2024-06-20T18:00:26.360+02:00,4834.979097625001,-0.0235137939453125,1.12518310546875,0.041290283203125
2024-06-20T18:00:26.370+02:00,4834.989155625,0.043792724609375,1.128265380859375,0.01708984375
2024-06-20T18:00:26.380+02:00,4834.999212625,0.070770263671875,1.111480712890625,-0.0244598388671875
2024-06-20T18:00:26.390+02:00,4835.009270625001,0.0773468017578125,1.054534912109375,-0.0790863037109375
2024-06-20T18:00:26.400+02:00,4835.019327625,0.084381103515625,0.953826904296875,-0.1214141845703125
2024-06-20T18:00:26.410+02:00,4835.029384625001,0.0932769775390625,0.8516998291015625,-0.1381683349609375
2024-06-20T18:00:26.421+02:00,4835.039442625,0.1012420654296875,0.7818450927734375,-0.1370697021484375
2024-06-20T18:00:26.431+02:00,4835.049499625,0.1046142578125,0.7883453369140625,-0.1345367431640625
2024-06-20T18:00:26.441+02:00,4835.059557625001,0.1048583984375,0.822662353515625,-0.1234283447265625
2024-06-20T18:00:26.451+02:00,4835.069614625,0.1020660400390625,0.873687744140625,-0.0686492919921875
2024-06-20T18:00:26.461+02:00,4835.079671625001,0.1295623779296875,0.9385833740234375,-0.02716064453125
2024-06-20T18:00:26.471+02:00,4835.089729625,0.1827850341796875,1.034149169921875,0.05731201171875
2024-06-20T18:00:26.481+02:00,4835.099786625,0.229644775390625,1.105422973632812,0.099365234375
2024-06-20T18:00:26.491+02:00,4835.109844625001,0.2750244140625,1.138198852539062,0.10223388671875
2024-06-20T18:00:26.501+02:00,4835.119901625,0.318389892578125,1.154403686523438,0.09503173828125
2024-06-20T18:00:26.511+02:00,4835.129959625,0.3597412109375,1.190093994140625,0.02813720703125
2024-06-20T18:00:26.521+02:00,4835.140016625,0.3811187744140625,1.178970336914062,-0.0695648193359375
2024-06-20T18:00:26.531+02:00,4835.150073625,0.399871826171875,1.178741455078125,-0.11474609375
2024-06-20T18:00:26.541+02:00,4835.160131625,0.4439697265625,1.159774780273438,-0.1405181884765625
2024-06-20T18:00:26.551+02:00,4835.170188625,0.5032196044921875,1.164215087890625,-0.1375579833984375
2024-06-20T18:00:26.561+02:00,4835.180246625,0.570220947265625,1.2205810546875,-0.0928497314453125
2024-06-20T18:00:26.571+02:00,4835.190303625001,0.619873046875,1.290908813476562,-0.0408782958984375
2024-06-20T18:00:26.581+02:00,4835.200361625,0.6168212890625,1.312484741210938,-0.049041748046875
2024-06-20T18:00:26.592+02:00,4835.210418625,0.5597076416015625,1.293502807617188,-0.091644287109375
2024-06-20T18:00:26.602+02:00,4835.220475625,0.4800872802734375,1.23138427734375,-0.126800537109375
2024-06-20T18:00:26.612+02:00,4835.230533625,0.4102630615234375,1.15185546875,-0.170806884765625
2024-06-20T18:00:26.622+02:00,4835.240590625001,0.374114990234375,1.079010009765625,-0.1899566650390625
2024-06-20T18:00:26.632+02:00,4835.250648625,0.361083984375,1.027999877929688,-0.18304443359375
2024-06-20T18:00:26.642+02:00,4835.260705625,0.3625640869140625,0.983123779296875,-0.170379638671875
2024-06-20T18:00:26.652+02:00,4835.270763625001,0.3573760986328125,0.9464874267578125,-0.148712158203125
2024-06-20T18:00:26.662+02:00,4835.280820625,0.3385467529296875,0.9348297119140625,-0.1183013916015625
2024-06-20T18:00:26.672+02:00,4835.290877625001,0.3070220947265625,0.925872802734375,-0.104156494140625
2024-06-20T18:00:26.682+02:00,4835.300935625,0.27294921875,0.8863983154296875,-0.1044158935546875
2024-06-20T18:00:26.692+02:00,4835.310992625,0.254364013671875,0.84716796875,-0.102996826171875
2024-06-20T18:00:26.702+02:00,4835.321050625001,0.257843017578125,0.784881591796875,-0.1291961669921875
2024-06-20T18:00:26.712+02:00,4835.331107625,0.2728729248046875,0.728179931640625,-0.1689453125
2024-06-20T18:00:26.722+02:00,4835.341165625,0.28387451171875,0.691680908203125,-0.19830322265625
2024-06-20T18:00:26.732+02:00,4835.351222625,0.30291748046875,0.665283203125,-0.228057861328125
2024-06-20T18:00:26.742+02:00,4835.361279625,0.3234405517578125,0.66168212890625,-0.2481842041015625
2024-06-20T18:00:26.752+02:00,4835.371337625001,0.3417205810546875,0.672515869140625,-0.2419891357421875
2024-06-20T18:00:26.763+02:00,4835.381394625,0.35198974609375,0.7027740478515625,-0.2360076904296875
2024-06-20T18:00:26.773+02:00,4835.391452625,0.34918212890625,0.693206787109375,-0.24169921875
2024-06-20T18:00:26.783+02:00,4835.401509625,0.338623046875,0.655853271484375,-0.23101806640625
2024-06-20T18:00:26.793+02:00,4835.411567625,0.3332977294921875,0.614288330078125,-0.2223358154296875
2024-06-20T18:00:26.803+02:00,4835.421624625001,0.3475799560546875,0.5821990966796875,-0.2132568359375
2024-06-20T18:00:26.813+02:00,4835.431681625,0.38421630859375,0.5616607666015625,-0.1898345947265625
2024-06-20T18:00:26.823+02:00,4835.441739625,0.43023681640625,0.551605224609375,-0.1896209716796875
2024-06-20T18:00:26.833+02:00,4835.451796625,0.453643798828125,0.5428009033203125,-0.21832275390625
2024-06-20T18:00:26.843+02:00,4835.461854625,0.4413604736328125,0.5571441650390625,-0.215545654296875
2024-06-20T18:00:26.853+02:00,4835.471911625,0.405731201171875,0.557342529296875,-0.224945068359375
2024-06-20T18:00:26.863+02:00,4835.481969625001,0.3716888427734375,0.5480499267578125,-0.2155914306640625
2024-06-20T18:00:26.873+02:00,4835.492026625,0.3603515625,0.567535400390625,-0.1984100341796875
2024-06-20T18:00:26.883+02:00,4835.502083625001,0.3760528564453125,0.56695556640625,-0.2195281982421875
2024-06-20T18:00:26.893+02:00,4835.512141625,0.405548095703125,0.55792236328125,-0.240631103515625
2024-06-20T18:00:26.903+02:00,4835.522198625,0.409423828125,0.5410614013671875,-0.246337890625
2024-06-20T18:00:26.913+02:00,4835.532256625001,0.385589599609375,0.4991455078125,-0.2771453857421875
2024-06-20T18:00:26.923+02:00,4835.542313625,0.3528900146484375,0.4472198486328125,-0.310638427734375
2024-06-20T18:00:26.934+02:00,4835.552371625,0.33355712890625,0.4015045166015625,-0.3327789306640625
2024-06-20T18:00:26.944+02:00,4835.562428625,0.3430633544921875,0.3849029541015625,-0.3387908935546875
2024-06-20T18:00:26.954+02:00,4835.572485625,0.3663330078125,0.3740997314453125,-0.375152587890625
2024-06-20T18:00:26.964+02:00,4835.582543625001,0.3839111328125,0.3701171875,-0.407470703125
2024-06-20T18:00:26.974+02:00,4835.592600625,0.3819427490234375,0.3759002685546875,-0.4475555419921875
2024-06-20T18:00:26.984+02:00,4835.602658625,0.358734130859375,0.35430908203125,-0.4639129638671875
2024-06-20T18:00:26.994+02:00,4835.612715625,0.3314208984375,0.343536376953125,-0.4476318359375
2024-06-20T18:00:27.004+02:00,4835.62277375,0.3126068115234375,0.3414154052734375,-0.44158935546875
2024-06-20T18:00:27.014+02:00,4835.632830750001,0.2940521240234375,0.3325958251953125,-0.447723388671875
2024-06-20T18:00:27.024+02:00,4835.64288775,0.265838623046875,0.331298828125,-0.4468994140625
2024-06-20T18:00:27.034+02:00,4835.65294575,0.2187652587890625,0.31036376953125,-0.484954833984375
2024-06-20T18:00:27.044+02:00,4835.66300275,0.1748199462890625,0.2702178955078125,-0.52935791015625
2024-06-20T18:00:27.054+02:00,4835.67306075,0.15728759765625,0.252410888671875,-0.5848236083984375
2024-06-20T18:00:27.064+02:00,4835.683117750001,0.1681976318359375,0.249664306640625,-0.6526947021484375
2024-06-20T18:00:27.074+02:00,4835.693175750001,0.2010345458984375,0.283966064453125,-0.7047119140625
2024-06-20T18:00:27.084+02:00,4835.70323275,0.225067138671875,0.3198394775390625,-0.765838623046875
2024-06-20T18:00:27.094+02:00,4835.713289750001,0.2174835205078125,0.3405609130859375,-0.8343048095703125
2024-06-20T18:00:27.104+02:00,4835.72334775,0.1876068115234375,0.352813720703125,-0.8194580078125
2024-06-20T18:00:27.115+02:00,4835.73340475,0.143798828125,0.393951416015625,-0.7386016845703125
2024-06-20T18:00:27.125+02:00,4835.743462750001,0.09759521484375,0.4603424072265625,-0.7093048095703125
2024-06-20T18:00:27.135+02:00,4835.75351975,0.06915283203125,0.5064849853515625,-0.7246856689453125
2024-06-20T18:00:27.145+02:00,4835.763576750001,0.06146240234375,0.51318359375,-0.73846435546875
2024-06-20T18:00:27.155+02:00,4835.77363475,0.0633544921875,0.525421142578125,-0.75634765625
2024-06-20T18:00:27.165+02:00,4835.78369175,0.0941619873046875,0.55023193359375,-0.759552001953125
2024-06-20T18:00:27.175+02:00,4835.793749750001,0.13861083984375,0.571533203125,-0.7306976318359375
2024-06-20T18:00:27.185+02:00,4835.80380675,0.185638427734375,0.5428009033203125,-0.75994873046875
2024-06-20T18:00:27.195+02:00,4835.81386475,0.2075958251953125,0.5439605712890625,-0.723663330078125
2024-06-20T18:00:27.205+02:00,4835.82392175,0.1933441162109375,0.649749755859375,-0.7270965576171875
2024-06-20T18:00:27.247+02:00,4835.83397875,0.160400390625,0.8060760498046875,-0.83819580078125
2024-06-20T18:00:27.248+02:00,4835.844036750001,0.119476318359375,0.924072265625,-0.9600982666015625
2024-06-20T18:00:27.249+02:00,4835.85409375,0.0856781005859375,0.97491455078125,-1.0999755859375
2024-06-20T18:00:27.249+02:00,4835.86415175,0.04754638671875,0.990875244140625,-1.10638427734375
2024-06-20T18:00:27.255+02:00,4835.87420875,-0.0429229736328125,0.9852142333984375,-1.013442993164062
2024-06-20T18:00:27.265+02:00,4835.88426675,-0.238983154296875,0.97149658203125,-0.6580963134765625
2024-06-20T18:00:27.275+02:00,4835.894323750001,-0.5382232666015625,1.175308227539062,-0.42486572265625
2024-06-20T18:00:27.286+02:00,4835.90438075,-0.831451416015625,1.314559936523438,-0.588287353515625
2024-06-20T18:00:27.296+02:00,4835.91443875,-0.9854736328125,1.391860961914062,-0.6652984619140625
2024-06-20T18:00:27.306+02:00,4835.92449575,-1.0252685546875,1.381927490234375,-0.74530029296875
2024-06-20T18:00:27.316+02:00,4835.93455375,-1.119110107421875,1.297286987304688,-0.4631500244140625
2024-06-20T18:00:27.326+02:00,4835.944610750001,-1.2371826171875,1.401947021484375,-0.7070465087890625
2024-06-20T18:00:27.336+02:00,4835.954668750001,-1.283096313476562,1.541839599609375,-0.779388427734375
2024-06-20T18:00:27.346+02:00,4835.96472575,-1.402206420898438,1.697311401367188,-0.7544708251953125
2024-06-20T18:00:27.356+02:00,4835.97478275,-1.360733032226562,1.609649658203125,-0.671295166015625
2024-06-20T18:00:27.366+02:00,4835.98484075,-1.279708862304688,1.552093505859375,-0.451629638671875
2024-06-20T18:00:27.376+02:00,4835.994897750001,-1.27667236328125,1.506500244140625,-0.415252685546875
2024-06-20T18:00:27.386+02:00,4836.004955750001,-1.198883056640625,1.398574829101562,-0.436248779296875
2024-06-20T18:00:27.396+02:00,4836.01501275,-1.10528564453125,1.320724487304688,-0.4129486083984375
2024-06-20T18:00:27.406+02:00,4836.02507075,-1.038162231445312,1.27899169921875,-0.428680419921875
2024-06-20T18:00:27.416+02:00,4836.03512775,-0.9830474853515625,1.30645751953125,-0.469451904296875
2024-06-20T18:00:27.426+02:00,4836.04518475,-0.8937530517578125,1.288040161132812,-0.5565948486328125
2024-06-20T18:00:27.436+02:00,4836.055242750001,-0.8078765869140625,1.242202758789062,-0.573089599609375
2024-06-20T18:00:27.446+02:00,4836.06529975,-0.75830078125,1.182281494140625,-0.533477783203125
2024-06-20T18:00:27.457+02:00,4836.07535775,-0.6974029541015625,1.126983642578125,-0.4886474609375
2024-06-20T18:00:27.467+02:00,4836.08541475,-0.629547119140625,1.09075927734375,-0.463592529296875
2024-06-20T18:00:27.477+02:00,4836.09547275,-0.576995849609375,1.039093017578125,-0.4261322021484375
2024-06-20T18:00:27.487+02:00,4836.105529750001,-0.54693603515625,1.012405395507812,-0.40069580078125
2024-06-20T18:00:27.497+02:00,4836.11558675,-0.51983642578125,0.985504150390625,-0.4316864013671875
2024-06-20T18:00:27.507+02:00,4836.12564475,-0.499755859375,0.993560791015625,-0.499298095703125
2024-06-20T18:00:27.517+02:00,4836.13570175,-0.4931488037109375,0.9870758056640625,-0.5283203125
2024-06-20T18:00:27.527+02:00,4836.14575975,-0.49932861328125,0.9550933837890625,-0.5435943603515625
2024-06-20T18:00:27.537+02:00,4836.155816750001,-0.50946044921875,0.927001953125,-0.518646240234375
2024-06-20T18:00:27.547+02:00,4836.165874750001,-0.5166015625,0.886810302734375,-0.48223876953125
2024-06-20T18:00:27.557+02:00,4836.17593175,-0.51617431640625,0.84197998046875,-0.4424896240234375
2024-06-20T18:00:27.567+02:00,4836.18598875,-0.5146484375,0.796905517578125,-0.39404296875
2024-06-20T18:00:27.577+02:00,4836.19604675,-0.5123748779296875,0.762939453125,-0.37152099609375
2024-06-20T18:00:27.587+02:00,4836.206103750001,-0.5005035400390625,0.7219696044921875,-0.347747802734375
2024-06-20T18:00:27.597+02:00,4836.216161750001,-0.489593505859375,0.6900787353515625,-0.3178558349609375
2024-06-20T18:00:27.607+02:00,4836.22621875,-0.4662322998046875,0.67938232421875,-0.33843994140625
2024-06-20T18:00:27.617+02:00,4836.23627675,-0.4246673583984375,0.6837005615234375,-0.4176025390625
2024-06-20T18:00:27.627+02:00,4836.24633375,-0.383544921875,0.6962890625,-0.45037841796875
2024-06-20T18:00:27.637+02:00,4836.256390750001,-0.3683013916015625,0.7023162841796875,-0.4273223876953125
2024-06-20T18:00:27.648+02:00,4836.266448750001,-0.3567047119140625,0.690460205078125,-0.3717193603515625
2024-06-20T18:00:27.658+02:00,4836.27650575,-0.32147216796875,0.7397003173828125,-0.2758941650390625
2024-06-20T18:00:27.668+02:00,4836.28656375,-0.2817230224609375,0.7642822265625,-0.316986083984375
2024-06-20T18:00:27.678+02:00,4836.29662075,-0.2436981201171875,0.7173004150390625,-0.3913116455078125
2024-06-20T18:00:27.688+02:00,4836.30667875,-0.22406005859375,0.7199554443359375,-0.344390869140625
2024-06-20T18:00:27.698+02:00,4836.316735750001,-0.217742919921875,0.6704864501953125,-0.3270111083984375
2024-06-20T18:00:27.708+02:00,4836.32679275,-0.2085113525390625,0.550140380859375,-0.31268310546875
2024-06-20T18:00:27.718+02:00,4836.33685075,-0.18548583984375,0.5279083251953125,-0.2346649169921875
2024-06-20T18:00:27.728+02:00,4836.34690775,-0.167327880859375,0.329193115234375,-0.47174072265625
2024-06-20T18:00:27.738+02:00,4836.35696575,-0.127777099609375,0.45989990234375,-0.2367401123046875
2024-06-20T18:00:27.748+02:00,4836.367022750001,-0.161895751953125,0.55548095703125,-0.2185211181640625
2024-06-20T18:00:27.758+02:00,4836.37708075,-0.15789794921875,0.56689453125,-0.24493408203125
2024-06-20T18:00:27.768+02:00,4836.38713775,-0.118499755859375,0.613616943359375,-0.2956695556640625
2024-06-20T18:00:27.778+02:00,4836.39719475,-0.0449066162109375,0.68023681640625,-0.2402801513671875
2024-06-20T18:00:27.788+02:00,4836.40725275,-0.027679443359375,0.7134857177734375,-0.2217864990234375
2024-06-20T18:00:27.798+02:00,4836.417309750001,-0.017242431640625,0.6464385986328125,-0.291168212890625
2024-06-20T18:00:27.809+02:00,4836.42736775,0.0107574462890625,0.5552520751953125,-0.275604248046875
2024-06-20T18:00:27.819+02:00,4836.43742475,0.0397796630859375,0.490936279296875,-0.2259521484375
2024-06-20T18:00:27.829+02:00,4836.447482750001,0.072479248046875,0.4798431396484375,-0.2632293701171875
2024-06-20T18:00:27.839+02:00,4836.45753975,0.10003662109375,0.553985595703125,-0.297210693359375
2024-06-20T18:00:27.849+02:00,4836.467596750001,0.1020050048828125,0.698516845703125,-0.2884368896484375
2024-06-20T18:00:27.859+02:00,4836.477654750001,0.093658447265625,0.81951904296875,-0.340972900390625
2024-06-20T18:00:27.869+02:00,4836.48771175,0.0727386474609375,0.8639373779296875,-0.3781585693359375
2024-06-20T18:00:27.879+02:00,4836.49776975,0.0842742919921875,0.8557281494140625,-0.42950439453125
2024-06-20T18:00:27.889+02:00,4836.50782675,0.112701416015625,0.7776031494140625,-0.52166748046875
2024-06-20T18:00:27.899+02:00,4836.51788475,0.126251220703125,0.697509765625,-0.6094818115234375
2024-06-20T18:00:27.909+02:00,4836.527941750001,0.1353302001953125,0.709808349609375,-0.56878662109375
2024-06-20T18:00:27.919+02:00,4836.53799875,0.1607666015625,0.749053955078125,-0.524139404296875
2024-06-20T18:00:27.929+02:00,4836.54805675,0.184967041015625,0.8022918701171875,-0.52947998046875
2024-06-20T18:00:27.939+02:00,4836.55811375,0.18743896484375,0.9366455078125,-0.49420166015625
2024-06-20T18:00:27.949+02:00,4836.56817175,0.15863037109375,1.0506591796875,-0.4560546875
2024-06-20T18:00:27.959+02:00,4836.578228750001,0.1245269775390625,1.078887939453125,-0.4533538818359375
2024-06-20T18:00:27.969+02:00,4836.58828675,0.1017608642578125,1.06060791015625,-0.5312652587890625
2024-06-20T18:00:27.980+02:00,4836.59834375,0.078033447265625,1.0076904296875,-0.539306640625
2024-06-20T18:00:27.990+02:00,4836.60840075,0.0587615966796875,0.9462738037109375,-0.5307159423828125
2024-06-20T18:00:28.000+02:00,4836.61845925,0.047149658203125,0.900482177734375,-0.5446014404296875
2024-06-20T18:00:28.010+02:00,4836.62851625,0.049652099609375,0.8835296630859375,-0.5516510009765625
2024-06-20T18:00:28.020+02:00,4836.638574250001,0.06365966796875,0.9073333740234375,-0.5509796142578125
2024-06-20T18:00:28.030+02:00,4836.64863125,0.073486328125,0.966064453125,-0.5438995361328125
2024-06-20T18:00:28.040+02:00,4836.65868925,0.05950927734375,1.050094604492188,-0.493621826171875
2024-06-20T18:00:28.050+02:00,4836.66874625,0.029510498046875,1.143020629882812,-0.430908203125
2024-06-20T18:00:28.060+02:00,4836.67880325,-0.00921630859375,1.22821044921875,-0.4073638916015625
2024-06-20T18:00:28.070+02:00,4836.688861250001,-0.0484466552734375,1.294143676757812,-0.4341583251953125
2024-06-20T18:00:28.080+02:00,4836.69891825,-0.083160400390625,1.32659912109375,-0.45465087890625
2024-06-20T18:00:28.090+02:00,4836.70897625,-0.100067138671875,1.302597045898438,-0.4695281982421875
2024-06-20T18:00:28.100+02:00,4836.71903325,-0.0924835205078125,1.260711669921875,-0.4674224853515625
2024-06-20T18:00:28.110+02:00,4836.72909125,-0.0782318115234375,1.24005126953125,-0.48333740234375
2024-06-20T18:00:28.120+02:00,4836.739148250001,-0.0655517578125,1.2188720703125,-0.509368896484375
2024-06-20T18:00:28.130+02:00,4836.74920525,-0.04815673828125,1.217727661132812,-0.5096588134765625
2024-06-20T18:00:28.140+02:00,4836.75926325,-0.0419464111328125,1.2078857421875,-0.4751434326171875
2024-06-20T18:00:28.150+02:00,4836.76932025,-0.0574951171875,1.176071166992188,-0.4500579833984375
2024-06-20T18:00:28.160+02:00,4836.77937825,-0.069366455078125,1.159286499023438,-0.419342041015625
2024-06-20T18:00:28.170+02:00,4836.789435250001,-0.0792083740234375,1.178497314453125,-0.364532470703125
2024-06-20T18:00:28.181+02:00,4836.79949225,-0.101776123046875,1.2071533203125,-0.3279571533203125
2024-06-20T18:00:28.191+02:00,4836.80955025,-0.130584716796875,1.224395751953125,-0.35064697265625
2024-06-20T18:00:28.201+02:00,4836.81960725,-0.150543212890625,1.2115478515625,-0.3848876953125
2024-06-20T18:00:28.211+02:00,4836.82966525,-0.154327392578125,1.176116943359375,-0.418701171875
2024-06-20T18:00:28.221+02:00,4836.839722250001,-0.1429901123046875,1.102630615234375,-0.43701171875
2024-06-20T18:00:28.231+02:00,4836.849780250001,-0.127166748046875,1.0428466796875,-0.431427001953125
2024-06-20T18:00:28.241+02:00,4836.85983725,-0.115081787109375,0.993988037109375,-0.4239044189453125
2024-06-20T18:00:28.251+02:00,4836.86989525,-0.1027679443359375,0.9626922607421875,-0.3967742919921875
2024-06-20T18:00:28.261+02:00,4836.87995225,-0.0912933349609375,0.9927520751953125,-0.344512939453125
2024-06-20T18:00:28.271+02:00,4836.890009250001,-0.0881195068359375,1.059661865234375,-0.304290771484375
2024-06-20T18:00:28.281+02:00,4836.900067250001,-0.0982666015625,1.12261962890625,-0.3053131103515625
2024-06-20T18:00:28.291+02:00,4836.91012425,-0.1265411376953125,1.1546630859375,-0.3141632080078125
2024-06-20T18:00:28.301+02:00,4836.92018225,-0.1543121337890625,1.1180419921875,-0.3426666259765625
2024-06-20T18:00:28.311+02:00,4836.93023925,-0.170989990234375,1.047088623046875,-0.3586273193359375
2024-06-20T18:00:28.321+02:00,4836.94029725,-0.1726531982421875,0.960906982421875,-0.3749237060546875
2024-06-20T18:00:28.332+02:00,4836.950354250001,-0.161956787109375,0.8736724853515625,-0.38433837890625
2024-06-20T18:00:28.342+02:00,4836.96041125,-0.1484222412109375,0.813751220703125,-0.3556976318359375
2024-06-20T18:00:28.352+02:00,4836.97046925,-0.144195556640625,0.7692108154296875,-0.3353271484375
2024-06-20T18:00:28.362+02:00,4836.98052625,-0.16619873046875,0.751068115234375,-0.3153839111328125
2024-06-20T18:00:28.372+02:00,4836.99058425,-0.221954345703125,0.7595367431640625,-0.3559112548828125
2024-06-20T18:00:28.382+02:00,4837.000641250001,-0.3021697998046875,0.781158447265625,-0.388427734375
2024-06-20T18:00:28.392+02:00,4837.01069925,-0.4141998291015625,0.807403564453125,-0.4141998291015625
2024-06-20T18:00:28.402+02:00,4837.02075625,-0.52783203125,0.7678985595703125,-0.454132080078125
2024-06-20T18:00:28.412+02:00,4837.03081325,-0.6096343994140625,0.6647186279296875,-0.4655609130859375
2024-06-20T18:00:28.422+02:00,4837.04087125,-0.695068359375,0.5669403076171875,-0.4352874755859375
2024-06-20T18:00:28.432+02:00,4837.050928250001,-0.808197021484375,0.4657440185546875,-0.31658935546875
2024-06-20T18:00:28.442+02:00,4837.06098625,-0.946533203125,0.35223388671875,-0.1537628173828125
2024-06-20T18:00:28.452+02:00,4837.07104325,-1.033493041992188,0.244781494140625,-0.031524658203125
2024-06-20T18:00:28.462+02:00,4837.08110125,-1.079025268554688,0.205535888671875,-0.1133575439453125
2024-06-20T18:00:28.472+02:00,4837.09115825,-1.001724243164062,0.188873291015625,-0.221893310546875
2024-06-20T18:00:28.482+02:00,4837.101215250001,-0.84661865234375,0.1736602783203125,-0.47869873046875
2024-06-20T18:00:28.492+02:00,4837.111273250001,-0.6238861083984375,0.1944580078125,-0.7740325927734375
2024-06-20T18:00:28.503+02:00,4837.12133025,-0.3718414306640625,0.1771087646484375,-0.9561920166015625
2024-06-20T18:00:28.513+02:00,4837.13138825,-0.1863250732421875,0.1578826904296875,-1.020492553710938
2024-06-20T18:00:28.523+02:00,4837.14144525,-0.038787841796875,0.163970947265625,-0.8959197998046875
2024-06-20T18:00:28.533+02:00,4837.15150325,0.0918731689453125,0.22088623046875,-0.7825775146484375
2024-06-20T18:00:28.543+02:00,4837.161560250001,0.211151123046875,0.2819061279296875,-0.7480010986328125
2024-06-20T18:00:28.553+02:00,4837.17161725,0.30853271484375,0.3162078857421875,-0.811065673828125
2024-06-20T18:00:28.563+02:00,4837.18167525,0.3680419921875,0.33660888671875,-0.9646453857421875
2024-06-20T18:00:28.573+02:00,4837.19173225,0.4062042236328125,0.304779052734375,-0.9828643798828125
2024-06-20T18:00:28.583+02:00,4837.20179025,0.3986358642578125,0.2452545166015625,-0.9790496826171875
2024-06-20T18:00:28.593+02:00,4837.211847250001,0.3341064453125,0.1559295654296875,-0.91912841796875
2024-06-20T18:00:28.603+02:00,4837.22190425,0.26641845703125,0.0810089111328125,-0.9790191650390625
2024-06-20T18:00:28.613+02:00,4837.23196225,0.202545166015625,0.0733184814453125,-0.998748779296875
2024-06-20T18:00:28.623+02:00,4837.24201925,0.1479644775390625,0.1378173828125,-1.097518920898438
2024-06-20T18:00:28.633+02:00,4837.25207725,0.0843963623046875,0.3333282470703125,-1.351715087890625
2024-06-20T18:00:28.643+02:00,4837.262134250001,0.0511627197265625,0.5577545166015625,-1.570999145507812
2024-06-20T18:00:28.653+02:00,4837.27219225,0.04510498046875,0.7316741943359375,-1.803192138671875
2024-06-20T18:00:28.663+02:00,4837.28224925,0.0540924072265625,0.8236236572265625,-1.86962890625
2024-06-20T18:00:28.673+02:00,4837.29230625,0.029876708984375,0.810882568359375,-1.79827880859375
2024-06-20T18:00:28.683+02:00,4837.30236425,-0.05621337890625,0.7387542724609375,-1.709030151367188
2024-06-20T18:00:28.694+02:00,4837.312421250001,-0.142669677734375,0.6988983154296875,-1.63348388671875
2024-06-20T18:00:28.704+02:00,4837.32247925,-0.2322235107421875,0.695892333984375,-1.65948486328125
2024-06-20T18:00:28.714+02:00,4837.33253625,-0.32427978515625,0.653411865234375,-1.653472900390625
2024-06-20T18:00:28.724+02:00,4837.342594250001,-0.4232635498046875,0.6119232177734375,-1.6676025390625
2024-06-20T18:00:28.734+02:00,4837.35265125,-0.526885986328125,0.6674041748046875,-1.675750732421875
2024-06-20T18:00:28.744+02:00,4837.362708250001,-0.6409149169921875,0.772491455078125,-1.671279907226562
2024-06-20T18:00:28.754+02:00,4837.37276625,-0.7839813232421875,0.87445068359375,-1.770248413085938
2024-06-20T18:00:28.764+02:00,4837.38282325,-0.87890625,0.90435791015625,-1.747161865234375
2024-06-20T18:00:28.774+02:00,4837.39288125,-1.004714965820312,0.9099884033203125,-1.665924072265625
2024-06-20T18:00:28.784+02:00,4837.40293825,-1.180908203125,0.9461517333984375,-1.561782836914062
2024-06-20T18:00:28.794+02:00,4837.41299625,-1.410446166992188,1.006591796875,-1.4815673828125
2024-06-20T18:00:28.804+02:00,4837.423053250001,-1.587142944335938,0.9991607666015625,-1.390243530273438
2024-06-20T18:00:28.814+02:00,4837.43311125,-1.64935302734375,0.905242919921875,-1.473220825195312
2024-06-20T18:00:28.824+02:00,4837.44316825,-1.513748168945312,0.699371337890625,-1.524551391601562
2024-06-20T18:00:28.834+02:00,4837.45322525,-1.349639892578125,0.3496246337890625,-1.366363525390625
2024-06-20T18:00:28.844+02:00,4837.46328325,-1.290847778320312,0.355926513671875,-1.090042114257812
2024-06-20T18:00:28.854+02:00,4837.473340250001,-1.459075927734375,0.7805023193359375,-1.076095581054688
2024-06-20T18:00:28.865+02:00,4837.48339825,-1.452011108398438,0.98919677734375,-1.163436889648438
2024-06-20T18:00:28.875+02:00,4837.49345525,-1.250411987304688,0.9729156494140625,-1.060073852539062
2024-06-20T18:00:28.885+02:00,4837.50351225,-1.050506591796875,0.7526092529296875,-0.927337646484375
2024-06-20T18:00:28.895+02:00,4837.51357025,-0.9369049072265625,0.6107330322265625,-0.8041534423828125
2024-06-20T18:00:28.905+02:00,4837.523627250001,-0.8499298095703125,0.582733154296875,-0.7546234130859375
2024-06-20T18:00:28.915+02:00,4837.53368525,-0.7306671142578125,0.568267822265625,-0.711395263671875
2024-06-20T18:00:28.925+02:00,4837.54374225,-0.62677001953125,0.531890869140625,-0.7418975830078125
2024-06-20T18:00:28.935+02:00,4837.553800250001,-0.52886962890625,0.5526885986328125,-0.6656036376953125
2024-06-20T18:00:28.945+02:00,4837.56385725,-0.4974212646484375,0.542694091796875,-0.5726776123046875
2024-06-20T18:00:28.955+02:00,4837.57391525,-0.4525299072265625,0.5543670654296875,-0.4690704345703125
2024-06-20T18:00:28.965+02:00,4837.58397225,-0.414306640625,0.5289459228515625,-0.4248504638671875
2024-06-20T18:00:28.975+02:00,4837.59402925,-0.3671722412109375,0.4886474609375,-0.3747406005859375
2024-06-20T18:00:28.985+02:00,4837.604087250001,-0.32745361328125,0.4809722900390625,-0.2860260009765625
2024-06-20T18:00:28.995+02:00,4837.61414425,-0.294769287109375,0.4325408935546875,-0.2298431396484375
2024-06-20T18:00:29.005+02:00,4837.624201125001,-0.261810302734375,0.386993408203125,-0.1939544677734375
2024-06-20T18:00:29.015+02:00,4837.634258125,-0.2345733642578125,0.35174560546875,-0.1784515380859375
2024-06-20T18:00:29.025+02:00,4837.644316125,-0.195526123046875,0.3521881103515625,-0.175079345703125
2024-06-20T18:00:29.036+02:00,4837.654373125,-0.1616668701171875,0.4262542724609375,-0.1906890869140625
2024-06-20T18:00:29.046+02:00,4837.664430125,-0.1496429443359375,0.508056640625,-0.238433837890625
2024-06-20T18:00:29.056+02:00,4837.674488125001,-0.1248931884765625,0.523773193359375,-0.2415771484375
2024-06-20T18:00:29.066+02:00,4837.684545125,-0.1134185791015625,0.50244140625,-0.2069549560546875
2024-06-20T18:00:29.076+02:00,4837.694603125,-0.100555419921875,0.451446533203125,-0.15521240234375
2024-06-20T18:00:29.086+02:00,4837.704660125,-0.0881195068359375,0.3907470703125,-0.07171630859375
2024-06-20T18:00:29.096+02:00,4837.714718125,-0.0948028564453125,0.331512451171875,0.010711669921875
2024-06-20T18:00:29.106+02:00,4837.724775125001,-0.09588623046875,0.2916717529296875,0.0828704833984375
2024-06-20T18:00:29.116+02:00,4837.734832125,-0.074127197265625,0.271759033203125,0.144439697265625
2024-06-20T18:00:29.126+02:00,4837.744890125,-0.0251617431640625,0.2492523193359375,0.137603759765625
2024-06-20T18:00:29.136+02:00,4837.754947125,0.050994873046875,0.2222137451171875,0.1176910400390625
2024-06-20T18:00:29.146+02:00,4837.765005125,0.1159820556640625,0.2039031982421875,0.107940673828125
2024-06-20T18:00:29.156+02:00,4837.775062125001,0.1598358154296875,0.19384765625,0.111907958984375
2024-06-20T18:00:29.166+02:00,4837.785119125,0.176727294921875,0.194580078125,0.14361572265625
2024-06-20T18:00:29.176+02:00,4837.795177125,0.1599578857421875,0.194610595703125,0.1657867431640625
2024-06-20T18:00:29.186+02:00,4837.805234125,0.1337432861328125,0.2272796630859375,0.2013397216796875
2024-06-20T18:00:29.196+02:00,4837.815292125,0.11334228515625,0.2753448486328125,0.2456512451171875
2024-06-20T18:00:29.207+02:00,4837.825349125001,0.102569580078125,0.304107666015625,0.22991943359375
2024-06-20T18:00:29.217+02:00,4837.835407125001,0.1279754638671875,0.3484039306640625,0.171173095703125
2024-06-20T18:00:29.227+02:00,4837.845464125,0.18450927734375,0.3936767578125,0.10040283203125
2024-06-20T18:00:29.237+02:00,4837.855522125,0.2413330078125,0.4144134521484375,0.0583648681640625
2024-06-20T18:00:29.247+02:00,4837.865579125,0.262664794921875,0.4499053955078125,0.0626220703125
2024-06-20T18:00:29.257+02:00,4837.875636125001,0.2597503662109375,0.50555419921875,0.016448974609375
2024-06-20T18:00:29.267+02:00,4837.885694125001,0.2241363525390625,0.586334228515625,-0.0264129638671875
2024-06-20T18:00:29.277+02:00,4837.895751125,0.1745758056640625,0.7632293701171875,-0.01910400390625
2024-06-20T18:00:29.287+02:00,4837.905809125,0.15057373046875,0.9819183349609375,-0.052825927734375
2024-06-20T18:00:29.297+02:00,4837.915866125,0.1775054931640625,1.093673706054688,-0.1124114990234375
2024-06-20T18:00:29.307+02:00,4837.925924125,0.195709228515625,1.086471557617188,-0.135772705078125
2024-06-20T18:00:29.317+02:00,4837.935981125001,0.1846160888671875,0.974822998046875,-0.216552734375
2024-06-20T18:00:29.327+02:00,4837.946038125,0.185546875,1.025909423828125,-0.1740875244140625
2024-06-20T18:00:29.337+02:00,4837.956096125,0.1807098388671875,1.11700439453125,-0.1693267822265625
2024-06-20T18:00:29.347+02:00,4837.966153125,0.1379852294921875,1.150375366210938,-0.19036865234375
2024-06-20T18:00:29.357+02:00,4837.976211125,0.0983428955078125,1.218292236328125,-0.15191650390625
2024-06-20T18:00:29.367+02:00,4837.986268125001,0.073150634765625,1.350997924804688,-0.1783599853515625
2024-06-20T18:00:29.377+02:00,4837.996326125,0.0821533203125,1.54937744140625,-0.2184906005859375
2024-06-20T18:00:29.388+02:00,4838.006383125,0.0938568115234375,1.704330444335938,-0.2749481201171875
2024-06-20T18:00:29.398+02:00,4838.016440125,0.0631866455078125,1.673812866210938,-0.294158935546875
2024-06-20T18:00:29.408+02:00,4838.026498125,0.0250701904296875,1.582366943359375,-0.3219146728515625
2024-06-20T18:00:29.418+02:00,4838.036555125001,0.0101165771484375,1.500228881835938,-0.372772216796875
2024-06-20T18:00:29.428+02:00,4838.046613125,0.0020599365234375,1.50457763671875,-0.3902435302734375
2024-06-20T18:00:29.438+02:00,4838.056670125,-0.01153564453125,1.578720092773438,-0.3993988037109375
2024-06-20T18:00:29.448+02:00,4838.066728125001,-0.024688720703125,1.7176513671875,-0.58343505859375
2024-06-20T18:00:29.458+02:00,4838.076785125,-0.0101165771484375,1.79638671875,-0.6805267333984375
2024-06-20T18:00:29.468+02:00,4838.086842125001,0.0198211669921875,1.796844482421875,-0.6506805419921875
2024-06-20T18:00:29.478+02:00,4838.096900125001,0.0498046875,1.729141235351562,-0.5583648681640625
2024-06-20T18:00:29.488+02:00,4838.106957125,0.0668182373046875,1.6134033203125,-0.45404052734375
2024-06-20T18:00:29.498+02:00,4838.117015125,0.0736846923828125,1.51959228515625,-0.3308868408203125
2024-06-20T18:00:29.508+02:00,4838.127072125,0.0652313232421875,1.472732543945312,-0.2223052978515625
2024-06-20T18:00:29.518+02:00,4838.137130125,0.052337646484375,1.464462280273438,-0.1932373046875
2024-06-20T18:00:29.528+02:00,4838.147187125001,0.0323944091796875,1.444992065429688,-0.240203857421875
2024-06-20T18:00:29.538+02:00,4838.157244125,0.011016845703125,1.399276733398438,-0.2630767822265625
2024-06-20T18:00:29.548+02:00,4838.167302125,0.001678466796875,1.338134765625,-0.2834930419921875
2024-06-20T18:00:29.559+02:00,4838.177359125,-0.007598876953125,1.279525756835938,-0.2961273193359375
2024-06-20T18:00:29.569+02:00,4838.187417125,-0.0147705078125,1.234161376953125,-0.3138580322265625
2024-06-20T18:00:29.579+02:00,4838.197474125001,-0.026824951171875,1.211257934570312,-0.31744384765625
2024-06-20T18:00:29.589+02:00,4838.207531125,-0.030426025390625,1.162521362304688,-0.3154144287109375
2024-06-20T18:00:29.599+02:00,4838.217589125,-0.02874755859375,1.120773315429688,-0.3079986572265625
2024-06-20T18:00:29.609+02:00,4838.227646125,-0.042938232421875,1.13323974609375,-0.268280029296875
2024-06-20T18:00:29.619+02:00,4838.237704125,-0.06109619140625,1.152069091796875,-0.2728729248046875
2024-06-20T18:00:29.629+02:00,4838.247761125001,-0.069793701171875,1.150131225585938,-0.276763916015625
2024-06-20T18:00:29.639+02:00,4838.257819125,-0.079986572265625,1.12896728515625,-0.280487060546875
2024-06-20T18:00:29.649+02:00,4838.267876125,-0.0888824462890625,1.105819702148438,-0.26165771484375
2024-06-20T18:00:29.659+02:00,4838.277934125001,-0.08831787109375,1.06103515625,-0.2493438720703125
2024-06-20T18:00:29.669+02:00,4838.287991125,-0.07757568359375,1.0186767578125,-0.2029266357421875
2024-06-20T18:00:29.679+02:00,4838.298048125001,-0.0670623779296875,1.004776000976562,-0.11505126953125
2024-06-20T18:00:29.689+02:00,4838.308106125,-0.050811767578125,1.014480590820312,-0.07098388671875
2024-06-20T18:00:29.699+02:00,4838.318163125,-0.0421600341796875,1.076461791992188,-0.05462646484375
2024-06-20T18:00:29.709+02:00,4838.328221125001,-0.04705810546875,1.146499633789062,-0.0654449462890625
2024-06-20T18:00:29.719+02:00,4838.338278125,-0.0624542236328125,1.146224975585938,-0.0968170166015625
2024-06-20T18:00:29.730+02:00,4838.348335125001,-0.0768890380859375,1.104446411132812,-0.140655517578125
2024-06-20T18:00:29.740+02:00,4838.358393125,-0.080780029296875,1.02630615234375,-0.1936187744140625
2024-06-20T18:00:29.750+02:00,4838.368450125,-0.0853424072265625,0.960052490234375,-0.2207794189453125
2024-06-20T18:00:29.760+02:00,4838.378508125001,-0.092559814453125,0.9045257568359375,-0.2021484375
2024-06-20T18:00:29.770+02:00,4838.388565125,-0.1020965576171875,0.888671875,-0.1533203125
2024-06-20T18:00:29.780+02:00,4838.398623125,-0.1098785400390625,0.9013671875,-0.0930938720703125
2024-06-20T18:00:29.790+02:00,4838.408680125001,-0.126068115234375,0.9332122802734375,-0.076873779296875
2024-06-20T18:00:29.800+02:00,4838.418737125,-0.1396942138671875,0.985504150390625,-0.0584716796875
2024-06-20T18:00:29.810+02:00,4838.428795125,-0.1648406982421875,1.096755981445312,-0.04632568359375
2024-06-20T18:00:29.820+02:00,4838.438852125,-0.201873779296875,1.183349609375,-0.0760498046875
2024-06-20T18:00:29.830+02:00,4838.448910125,-0.2513580322265625,1.186279296875,-0.1396942138671875
2024-06-20T18:00:29.840+02:00,4838.458967125001,-0.3256378173828125,1.133209228515625,-0.247894287109375
2024-06-20T18:00:29.850+02:00,4838.469025125,-0.4115753173828125,1.078475952148438,-0.284515380859375
2024-06-20T18:00:29.860+02:00,4838.479082125,-0.49420166015625,1.040176391601562,-0.3140411376953125
2024-06-20T18:00:29.870+02:00,4838.489139125,-0.53448486328125,0.933441162109375,-0.506805419921875
2024-06-20T18:00:29.880+02:00,4838.499197125,-0.5014495849609375,0.854522705078125,-0.633941650390625
2024-06-20T18:00:29.890+02:00,4838.509254125001,-0.420745849609375,0.7736663818359375,-0.6455841064453125
2024-06-20T18:00:29.901+02:00,4838.519312125,-0.3579254150390625,0.7693328857421875,-0.5048370361328125
2024-06-20T18:00:29.911+02:00,4838.529369125,-0.3488311767578125,0.9066619873046875,-0.236968994140625
2024-06-20T18:00:29.921+02:00,4838.539427125001,-0.411285400390625,1.108840942382812,-0.2200469970703125
2024-06-20T18:00:29.931+02:00,4838.549484125,-0.5351409912109375,1.259307861328125,-0.41229248046875
2024-06-20T18:00:29.941+02:00,4838.559542125,-0.6624908447265625,1.335586547851562,-0.5440216064453125
2024-06-20T18:00:29.951+02:00,4838.569599125,-0.7303619384765625,1.311370849609375,-0.6033935546875
2024-06-20T18:00:29.961+02:00,4838.579656125,-0.7332916259765625,1.169937133789062,-0.5590972900390625
2024-06-20T18:00:29.971+02:00,4838.589714125001,-0.6772003173828125,0.82550048828125,-0.787841796875
2024-06-20T18:00:29.981+02:00,4838.599771125,-0.52972412109375,0.7532196044921875,-0.6150360107421875
2024-06-20T18:00:29.991+02:00,4838.609829125,-0.4204559326171875,0.6140899658203125,-0.6558837890625
2024-06-20T18:00:30.001+02:00,4838.619886750001,-0.296905517578125,0.5363311767578125,-0.7653045654296875
2024-06-20T18:00:30.011+02:00,4838.62994375,-0.1707763671875,0.5001068115234375,-0.684356689453125
2024-06-20T18:00:30.021+02:00,4838.64000175,-0.059234619140625,0.4720458984375,-0.6098175048828125
2024-06-20T18:00:30.031+02:00,4838.65005875,0.0285491943359375,0.474334716796875,-0.47674560546875
2024-06-20T18:00:30.041+02:00,4838.66011675,0.0753021240234375,0.5207672119140625,-0.4184417724609375
2024-06-20T18:00:30.051+02:00,4838.670173750001,0.07659912109375,0.49139404296875,-0.4871978759765625
2024-06-20T18:00:30.061+02:00,4838.680231750001,0.135223388671875,0.5298004150390625,-0.48931884765625
2024-06-20T18:00:30.071+02:00,4838.69028875,0.2464599609375,0.82525634765625,-0.2594451904296875
2024-06-20T18:00:30.081+02:00,4838.70034575,0.333831787109375,0.849212646484375,-0.29034423828125
2024-06-20T18:00:30.091+02:00,4838.71040375,0.4444122314453125,0.72186279296875,-0.223388671875
2024-06-20T18:00:30.102+02:00,4838.720460750001,0.6172637939453125,0.677215576171875,-0.1522216796875
2024-06-20T18:00:30.112+02:00,4838.730518750001,0.8385009765625,0.6377716064453125,-0.0392608642578125
2024-06-20T18:00:30.122+02:00,4838.74057575,1.076126098632812,0.602294921875,0.1910858154296875
2024-06-20T18:00:30.132+02:00,4838.75063375,1.314132690429688,0.564697265625,0.2890625
2024-06-20T18:00:30.142+02:00,4838.76069075,1.512115478515625,0.614715576171875,0.4340972900390625
2024-06-20T18:00:30.152+02:00,4838.770747750001,1.587066650390625,0.714630126953125,0.47479248046875
2024-06-20T18:00:30.162+02:00,4838.780805750001,1.44354248046875,0.6094818115234375,0.2364044189453125
2024-06-20T18:00:30.173+02:00,4838.79086275,1.1300048828125,0.503387451171875,-0.0151519775390625
2024-06-20T18:00:30.182+02:00,4838.80092075,0.7817230224609375,0.531280517578125,-0.26226806640625
2024-06-20T18:00:30.192+02:00,4838.81097775,0.4392547607421875,0.5200958251953125,-0.39154052734375
2024-06-20T18:00:30.202+02:00,4838.82103575,0.2817840576171875,0.5698089599609375,-0.3259735107421875
2024-06-20T18:00:30.212+02:00,4838.831092750001,0.3175506591796875,0.6099700927734375,-0.3455657958984375
2024-06-20T18:00:30.222+02:00,4838.84114975,0.329193115234375,0.5799102783203125,-0.2913818359375
2024-06-20T18:00:30.232+02:00,4838.85120775,0.31658935546875,0.703094482421875,-0.2259521484375
2024-06-20T18:00:30.242+02:00,4838.86126475,0.2682037353515625,0.8081817626953125,-0.228240966796875
2024-06-20T18:00:30.253+02:00,4838.87132275,0.1802825927734375,0.8650054931640625,-0.3026885986328125
2024-06-20T18:00:30.262+02:00,4838.881379750001,0.0909271240234375,1.013748168945312,-0.2360382080078125
2024-06-20T18:00:30.273+02:00,4838.89143775,-0.0059051513671875,1.181198120117188,-0.16241455078125
2024-06-20T18:00:30.283+02:00,4838.90149475,-0.056976318359375,1.285568237304688,-0.148590087890625
2024-06-20T18:00:30.293+02:00,4838.91155175,-0.074920654296875,1.403793334960938,-0.098785400390625
2024-06-20T18:00:30.303+02:00,4838.92160975,-0.0899505615234375,1.445632934570312,0.0030517578125
2024-06-20T18:00:30.313+02:00,4838.931666750001,-0.083709716796875,1.362380981445312,-0.039306640625
2024-06-20T18:00:30.323+02:00,4838.941724750001,-0.0927886962890625,1.402816772460938,0.084381103515625
2024-06-20T18:00:30.333+02:00,4838.95178175,-0.1437225341796875,1.32757568359375,-0.0077362060546875
2024-06-20T18:00:30.343+02:00,4838.96183975,-0.20770263671875,1.310394287109375,-0.0668487548828125
2024-06-20T18:00:30.353+02:00,4838.97189675,-0.1997833251953125,1.267257690429688,-0.0403594970703125
2024-06-20T18:00:30.363+02:00,4838.981953750001,-0.1413116455078125,1.184005737304688,0.05157470703125
2024-06-20T18:00:30.373+02:00,4838.992011750001,-0.030975341796875,1.229263305664062,0.2462615966796875
2024-06-20T18:00:30.383+02:00,4839.00206875,0.0714874267578125,1.301925659179688,0.30279541015625
2024-06-20T18:00:30.393+02:00,4839.01212675,0.1096649169921875,1.4493408203125,0.3763427734375
2024-06-20T18:00:30.403+02:00,4839.02218375,0.015472412109375,1.467269897460938,0.3154296875
2024-06-20T18:00:30.413+02:00,4839.03224175,-0.137176513671875,1.43463134765625,0.34429931640625
2024-06-20T18:00:30.423+02:00,4839.042298750001,-0.2304229736328125,1.425582885742188,0.420440673828125
2024-06-20T18:00:30.434+02:00,4839.05235575,-0.2128143310546875,1.425140380859375,0.481201171875
2024-06-20T18:00:30.444+02:00,4839.06241375,-0.1324310302734375,1.39404296875,0.4581146240234375
2024-06-20T18:00:30.454+02:00,4839.07247075,-0.0567626953125,1.250289916992188,0.47283935546875
2024-06-20T18:00:30.464+02:00,4839.08252875,0.0015716552734375,1.150650024414062,0.5203094482421875
2024-06-20T18:00:30.474+02:00,4839.092585750001,0.0573577880859375,1.113555908203125,0.5186767578125
2024-06-20T18:00:30.484+02:00,4839.10264375,0.105377197265625,1.120513916015625,0.4910888671875
2024-06-20T18:00:30.494+02:00,4839.11270075,0.1465911865234375,1.163909912109375,0.5268707275390625
2024-06-20T18:00:30.504+02:00,4839.12275775,0.213134765625,1.21588134765625,0.5791168212890625
2024-06-20T18:00:30.514+02:00,4839.13281575,0.25982666015625,1.23626708984375,0.704376220703125
2024-06-20T18:00:30.524+02:00,4839.142872750001,0.322509765625,1.277481079101562,0.8854827880859375
2024-06-20T18:00:30.534+02:00,4839.15293075,0.3671417236328125,1.352737426757812,1.111846923828125
2024-06-20T18:00:30.544+02:00,4839.16298775,0.33062744140625,1.49029541015625,1.223129272460938
2024-06-20T18:00:30.554+02:00,4839.173045750001,0.198516845703125,1.561508178710938,1.289215087890625
2024-06-20T18:00:30.564+02:00,4839.18310275,0.07281494140625,1.594863891601562,1.29132080078125
2024-06-20T18:00:30.574+02:00,4839.193159750001,0.0287628173828125,1.51446533203125,1.165008544921875
2024-06-20T18:00:30.584+02:00,4839.20321775,0.0644683837890625,1.375030517578125,1.0609130859375
2024-06-20T18:00:30.594+02:00,4839.21327475,0.1115875244140625,1.344268798828125,1.069427490234375
2024-06-20T18:00:30.604+02:00,4839.223332750001,0.171875,1.37548828125,0.9949493408203125
2024-06-20T18:00:30.615+02:00,4839.23338975,0.15966796875,1.541732788085938,1.0125732421875
2024-06-20T18:00:30.625+02:00,4839.24344775,-0.015411376953125,1.696548461914062,0.998504638671875
2024-06-20T18:00:30.635+02:00,4839.253504750001,-0.25860595703125,1.583465576171875,0.9250335693359375
2024-06-20T18:00:30.645+02:00,4839.26356175,-0.5288848876953125,1.681503295898438,1.120681762695312
