loggingTime(txt),accelerometerTimestamp_sinceReboot(s),accelerometerAccelerationX(G),accelerometerAccelerationY(G),accelerometerAccelerationZ(G)
2024-06-20T17:22:13.293+02:00,3386.490387625,-0.8385467529296875,0.5511932373046875,0.0069732666015625
2024-06-20T17:22:13.294+02:00,3386.510368625,-0.8362579345703125,0.547760009765625,0.0145263671875
2024-06-20T17:22:13.299+02:00,3386.530348625,-0.832000732421875,0.5575714111328125,0.000457763671875
2024-06-20T17:22:13.300+02:00,3386.550329625,-0.8315277099609375,0.5645904541015625,0.0106964111328125
2024-06-20T17:22:13.300+02:00,3386.570310625,-0.835723876953125,0.550628662109375,0.014923095703125
2024-06-20T17:22:13.303+02:00,3386.590292625,-0.8319091796875,0.5462646484375,0.0068817138671875
2024-06-20T17:22:13.304+02:00,3386.610274625,-0.82958984375,0.5566558837890625,0.0093841552734375
2024-06-20T17:22:13.304+02:00,3386.630255625,-0.8427276611328125,0.5542144775390625,0.0117340087890625
2024-06-20T17:22:13.304+02:00,3386.650236625,-0.81884765625,0.5573577880859375,0.004608154296875
2024-06-20T17:22:13.304+02:00,3386.670216625,-0.8293914794921875,0.563751220703125,0.0084075927734375
2024-06-20T17:22:13.305+02:00,3386.690195625,-0.840576171875,0.54150390625,0.004425048828125
2024-06-20T17:22:13.305+02:00,3386.710175625,-0.8381805419921875,0.5566864013671875,-0.0048370361328125
2024-06-20T17:22:13.305+02:00,3386.730153625,-0.84527587890625,0.545440673828125,-0.00738525390625
2024-06-20T17:22:13.305+02:00,3386.750132625,-0.8212738037109375,0.5504150390625,-0.0106201171875
2024-06-20T17:22:13.305+02:00,3386.760184625,-0.8192901611328125,0.555419921875,-0.0113677978515625
2024-06-20T17:22:13.306+02:00,3386.770243625,-0.8268890380859375,0.55499267578125,-0.0179901123046875
2024-06-20T17:22:13.306+02:00,3386.780301625,-0.827362060546875,0.5601348876953125,-0.009613037109375
2024-06-20T17:22:13.306+02:00,3386.790358625,-0.829315185546875,0.5611419677734375,-0.001007080078125
2024-06-20T17:22:13.306+02:00,3386.800416625,-0.8411102294921875,0.5515289306640625,-0.00335693359375
2024-06-20T17:22:13.307+02:00,3386.810473625,-0.84014892578125,0.5442352294921875,-0.0074462890625
2024-06-20T17:22:13.307+02:00,3386.820531625,-0.837860107421875,0.5457611083984375,-0.01031494140625
2024-06-20T17:22:13.307+02:00,3386.830588625,-0.84075927734375,0.553619384765625,-0.0166473388671875
2024-06-20T17:22:13.307+02:00,3386.840646625,-0.836944580078125,0.5578765869140625,-0.0153045654296875
2024-06-20T17:22:13.308+02:00,3386.850704625,-0.83062744140625,0.5614471435546875,-0.0142364501953125
2024-06-20T17:22:13.308+02:00,3386.860761625,-0.835784912109375,0.553863525390625,-0.01934814453125
2024-06-20T17:22:13.308+02:00,3386.870819625,-0.834808349609375,0.551422119140625,-0.01556396484375
2024-06-20T17:22:13.308+02:00,3386.880876625,-0.834381103515625,0.543731689453125,-0.0205230712890625
2024-06-20T17:22:13.308+02:00,3386.890934625,-0.8402252197265625,0.5429229736328125,-0.023834228515625
2024-06-20T17:22:13.309+02:00,3386.900991625,-0.8377685546875,0.539581298828125,-0.0277099609375
2024-06-20T17:22:13.309+02:00,3386.911049041667,-0.8282012939453125,0.5454864501953125,-0.02655029296875
2024-06-20T17:22:13.309+02:00,3386.921107041667,-0.8300018310546875,0.5608062744140625,-0.016326904296875
2024-06-20T17:22:13.309+02:00,3386.931164041667,-0.8386077880859375,0.5601654052734375,-0.0203704833984375
2024-06-20T17:22:13.309+02:00,3386.941222041667,-0.833984375,0.5513153076171875,-0.01708984375
2024-06-20T17:22:13.310+02:00,3386.951279041667,-0.833648681640625,0.5473785400390625,-0.0243377685546875
2024-06-20T17:22:13.310+02:00,3386.961337041667,-0.82843017578125,0.552581787109375,-0.029052734375
2024-06-20T17:22:13.310+02:00,3386.971394041667,-0.828887939453125,0.5505523681640625,-0.0360565185546875
2024-06-20T17:22:13.310+02:00,3386.981452041667,-0.8310089111328125,0.5508575439453125,-0.0401611328125
2024-06-20T17:22:13.311+02:00,3386.991510041667,-0.838226318359375,0.55218505859375,-0.049041748046875
2024-06-20T17:22:13.311+02:00,3387.001567041667,-0.843353271484375,0.5489349365234375,-0.050628662109375
2024-06-20T17:22:13.311+02:00,3387.011625041667,-0.8393707275390625,0.54949951171875,-0.0453338623046875
2024-06-20T17:22:13.311+02:00,3387.021682041667,-0.839599609375,0.555328369140625,-0.0466156005859375
2024-06-20T17:22:13.312+02:00,3387.031740041667,-0.828460693359375,0.5695953369140625,-0.035430908203125
2024-06-20T17:22:13.312+02:00,3387.041797041667,-0.82415771484375,0.569244384765625,-0.0337677001953125
2024-06-20T17:22:13.312+02:00,3387.051855041667,-0.8289031982421875,0.556671142578125,-0.039031982421875
2024-06-20T17:22:13.312+02:00,3387.061913041667,-0.8226776123046875,0.549896240234375,-0.03656005859375
2024-06-20T17:22:13.312+02:00,3387.071970041667,-0.8240509033203125,0.5464324951171875,-0.045135498046875
2024-06-20T17:22:13.313+02:00,3387.082028041667,-0.8305816650390625,0.5418853759765625,-0.0594329833984375
2024-06-20T17:22:13.313+02:00,3387.092085041667,-0.830078125,0.5518341064453125,-0.0625152587890625
2024-06-20T17:22:13.313+02:00,3387.102143041667,-0.8373260498046875,0.5530242919921875,-0.0639495849609375
2024-06-20T17:22:13.313+02:00,3387.112201041667,-0.8490753173828125,0.544219970703125,-0.0760498046875
2024-06-20T17:22:13.313+02:00,3387.122258041667,-0.84002685546875,0.54449462890625,-0.0800628662109375
2024-06-20T17:22:13.314+02:00,3387.132316041667,-0.82672119140625,0.5552520751953125,-0.073883056640625
2024-06-20T17:22:13.314+02:00,3387.142373041667,-0.82281494140625,0.5616912841796875,-0.0708160400390625
2024-06-20T17:22:13.314+02:00,3387.152431041667,-0.82513427734375,0.557769775390625,-0.075469970703125
2024-06-20T17:22:13.315+02:00,3387.162488041667,-0.8279876708984375,0.55853271484375,-0.0648345947265625
2024-06-20T17:22:13.315+02:00,3387.172546041667,-0.8311614990234375,0.5433807373046875,-0.07354736328125
2024-06-20T17:22:13.315+02:00,3387.182604041667,-0.8295135498046875,0.5348663330078125,-0.0839385986328125
2024-06-20T17:22:13.315+02:00,3387.192661041667,-0.843780517578125,0.5317535400390625,-0.094390869140625
2024-06-20T17:22:13.316+02:00,3387.202719041667,-0.856842041015625,0.5311737060546875,-0.10687255859375
2024-06-20T17:22:13.316+02:00,3387.212776041667,-0.8522186279296875,0.53192138671875,-0.1164093017578125
2024-06-20T17:22:13.316+02:00,3387.222834041667,-0.842498779296875,0.5276641845703125,-0.1311798095703125
2024-06-20T17:22:13.317+02:00,3387.232891041667,-0.8242645263671875,0.5490875244140625,-0.1166839599609375
2024-06-20T17:22:13.317+02:00,3387.242949041667,-0.82513427734375,0.555633544921875,-0.11492919921875
2024-06-20T17:22:13.317+02:00,3387.253007041667,-0.8306121826171875,0.5542449951171875,-0.1242218017578125
2024-06-20T17:22:13.318+02:00,3387.263064041667,-0.83026123046875,0.5482025146484375,-0.1225128173828125
2024-06-20T17:22:13.318+02:00,3387.273122041667,-0.8226165771484375,0.532073974609375,-0.123321533203125
2024-06-20T17:22:13.318+02:00,3387.283179041667,-0.8110809326171875,0.521148681640625,-0.1253509521484375
2024-06-20T17:22:13.318+02:00,3387.293237041667,-0.8220672607421875,0.5294189453125,-0.13189697265625
2024-06-20T17:22:13.318+02:00,3387.303295041667,-0.835235595703125,0.5309295654296875,-0.1401214599609375
2024-06-20T17:22:13.319+02:00,3387.313352041667,-0.8412933349609375,0.5162200927734375,-0.1533203125
2024-06-20T17:22:13.319+02:00,3387.323410041667,-0.841094970703125,0.5069732666015625,-0.1555938720703125
2024-06-20T17:22:13.319+02:00,3387.333467041667,-0.8454132080078125,0.505645751953125,-0.16400146484375
2024-06-20T17:22:13.319+02:00,3387.343525041667,-0.8419342041015625,0.517242431640625,-0.16961669921875
2024-06-20T17:22:13.320+02:00,3387.353582041667,-0.836151123046875,0.535980224609375,-0.1700897216796875
2024-06-20T17:22:13.320+02:00,3387.363640041667,-0.8306732177734375,0.5359649658203125,-0.17889404296875
2024-06-20T17:22:13.320+02:00,3387.373698041667,-0.823333740234375,0.529144287109375,-0.16815185546875
2024-06-20T17:22:13.320+02:00,3387.383755041667,-0.820709228515625,0.521240234375,-0.161224365234375
2024-06-20T17:22:13.321+02:00,3387.393813041667,-0.80963134765625,0.5229339599609375,-0.157501220703125
2024-06-20T17:22:13.322+02:00,3387.403870041667,-0.8150482177734375,0.52239990234375,-0.169830322265625
2024-06-20T17:22:13.322+02:00,3387.413928041667,-0.828887939453125,0.5091400146484375,-0.188079833984375
2024-06-20T17:22:13.322+02:00,3387.423986041667,-0.8412933349609375,0.5017852783203125,-0.194976806640625
2024-06-20T17:22:13.323+02:00,3387.434043041667,-0.8455047607421875,0.5007171630859375,-0.20111083984375
2024-06-20T17:22:13.323+02:00,3387.444101041667,-0.854248046875,0.497711181640625,-0.2108612060546875
2024-06-20T17:22:13.323+02:00,3387.454158041667,-0.85205078125,0.49676513671875,-0.2201995849609375
2024-06-20T17:22:13.323+02:00,3387.464216041667,-0.841583251953125,0.50445556640625,-0.220123291015625
2024-06-20T17:22:13.324+02:00,3387.474273041667,-0.8345184326171875,0.5099029541015625,-0.2221832275390625
2024-06-20T17:22:13.324+02:00,3387.484331041667,-0.82684326171875,0.5163726806640625,-0.227325439453125
2024-06-20T17:22:13.324+02:00,3387.494389041667,-0.818817138671875,0.517852783203125,-0.219879150390625
2024-06-20T17:22:13.324+02:00,3387.504446041667,-0.8168487548828125,0.510986328125,-0.2158660888671875
2024-06-20T17:22:13.325+02:00,3387.514504041667,-0.8193206787109375,0.511138916015625,-0.2095489501953125
2024-06-20T17:22:13.325+02:00,3387.524561041667,-0.8214569091796875,0.52288818359375,-0.19854736328125
2024-06-20T17:22:13.325+02:00,3387.534619041667,-0.81982421875,0.51336669921875,-0.2029571533203125
2024-06-20T17:22:13.325+02:00,3387.544677041667,-0.8145904541015625,0.5057830810546875,-0.20098876953125
2024-06-20T17:22:13.325+02:00,3387.554734041667,-0.818115234375,0.50396728515625,-0.193634033203125
2024-06-20T17:22:13.326+02:00,3387.564792041667,-0.8321380615234375,0.4994964599609375,-0.21051025390625
2024-06-20T17:22:13.326+02:00,3387.574849041667,-0.8405303955078125,0.4962921142578125,-0.2227325439453125
2024-06-20T17:22:13.326+02:00,3387.584907041667,-0.8424072265625,0.49200439453125,-0.2334442138671875
2024-06-20T17:22:13.326+02:00,3387.594965041667,-0.8377685546875,0.4945220947265625,-0.2367095947265625
2024-06-20T17:22:13.327+02:00,3387.605022041667,-0.8360595703125,0.501007080078125,-0.24127197265625
2024-06-20T17:22:13.327+02:00,3387.615080041667,-0.8370819091796875,0.500244140625,-0.24798583984375
2024-06-20T17:22:13.327+02:00,3387.625137041667,-0.8338470458984375,0.5121307373046875,-0.242034912109375
2024-06-20T17:22:13.327+02:00,3387.635195041667,-0.831329345703125,0.5240020751953125,-0.228668212890625
2024-06-20T17:22:13.328+02:00,3387.645253041667,-0.8287506103515625,0.5212554931640625,-0.2176361083984375
2024-06-20T17:22:13.328+02:00,3387.655310041667,-0.8294677734375,0.508056640625,-0.21014404296875
2024-06-20T17:22:13.328+02:00,3387.665368041667,-0.8244171142578125,0.4991302490234375,-0.205413818359375
2024-06-20T17:22:13.328+02:00,3387.675425041667,-0.81927490234375,0.5063934326171875,-0.2065887451171875
2024-06-20T17:22:13.329+02:00,3387.685483041667,-0.82818603515625,0.5012664794921875,-0.2152557373046875
2024-06-20T17:22:13.329+02:00,3387.695540041667,-0.8438262939453125,0.494873046875,-0.2323150634765625
2024-06-20T17:22:13.329+02:00,3387.705598041667,-0.8443145751953125,0.4968109130859375,-0.222625732421875
2024-06-20T17:22:13.329+02:00,3387.715656041667,-0.8430633544921875,0.4894561767578125,-0.23406982421875
2024-06-20T17:22:13.330+02:00,3387.725713041667,-0.8289947509765625,0.5025787353515625,-0.2261505126953125
2024-06-20T17:22:13.330+02:00,3387.735771041667,-0.827423095703125,0.5230560302734375,-0.21832275390625
2024-06-20T17:22:13.330+02:00,3387.745828041667,-0.832977294921875,0.52203369140625,-0.221832275390625
2024-06-20T17:22:13.330+02:00,3387.755886041667,-0.83184814453125,0.51055908203125,-0.22247314453125
2024-06-20T17:22:13.331+02:00,3387.765944041667,-0.8162078857421875,0.5128936767578125,-0.2135162353515625
2024-06-20T17:22:13.331+02:00,3387.776001041667,-0.8141021728515625,0.5084686279296875,-0.222930908203125
2024-06-20T17:22:13.331+02:00,3387.786059041667,-0.8182373046875,0.508087158203125,-0.233184814453125
2024-06-20T17:22:13.331+02:00,3387.796116041667,-0.8223419189453125,0.512115478515625,-0.2233428955078125
2024-06-20T17:22:13.332+02:00,3387.806174041667,-0.8274383544921875,0.5001220703125,-0.2176666259765625
2024-06-20T17:22:13.332+02:00,3387.816231041667,-0.839447021484375,0.4906463623046875,-0.1997528076171875
2024-06-20T17:22:13.332+02:00,3387.826289041667,-0.8555145263671875,0.473297119140625,-0.1984710693359375
2024-06-20T17:22:13.332+02:00,3387.836347041667,-0.8653106689453125,0.46148681640625,-0.209686279296875
2024-06-20T17:22:13.332+02:00,3387.846404041667,-0.8548126220703125,0.46484375,-0.21795654296875
2024-06-20T17:22:13.333+02:00,3387.856462041667,-0.8427581787109375,0.47119140625,-0.2346649169921875
2024-06-20T17:22:13.333+02:00,3387.866519041667,-0.8270263671875,0.4885101318359375,-0.2399139404296875
2024-06-20T17:22:13.333+02:00,3387.876577041667,-0.8195953369140625,0.503570556640625,-0.23809814453125
2024-06-20T17:22:13.333+02:00,3387.886635041667,-0.820343017578125,0.505828857421875,-0.239349365234375
2024-06-20T17:22:13.334+02:00,3387.896692041667,-0.8141326904296875,0.5107879638671875,-0.223968505859375
2024-06-20T17:22:13.334+02:00,3387.906750375,-0.823211669921875,0.500762939453125,-0.215667724609375
2024-06-20T17:22:13.334+02:00,3387.916807375,-0.8372802734375,0.4900970458984375,-0.209503173828125
2024-06-20T17:22:13.334+02:00,3387.926865375,-0.850341796875,0.4820404052734375,-0.19677734375
2024-06-20T17:22:13.334+02:00,3387.936923375,-0.860137939453125,0.4668731689453125,-0.2020721435546875
2024-06-20T17:22:13.335+02:00,3387.946980375,-0.862060546875,0.4644927978515625,-0.2057647705078125
2024-06-20T17:22:13.335+02:00,3387.957038375,-0.8627166748046875,0.4571533203125,-0.2136993408203125
2024-06-20T17:22:13.336+02:00,3387.967095375,-0.862518310546875,0.4461669921875,-0.2281494140625
2024-06-20T17:22:13.336+02:00,3387.977153375,-0.839508056640625,0.4799957275390625,-0.1893463134765625
2024-06-20T17:22:13.336+02:00,3387.987211375,-0.8364715576171875,0.486083984375,-0.182098388671875
2024-06-20T17:22:13.336+02:00,3387.997268375,-0.842498779296875,0.475830078125,-0.1960601806640625
2024-06-20T17:22:13.337+02:00,3388.007326375,-0.84454345703125,0.4764862060546875,-0.184478759765625
2024-06-20T17:22:13.337+02:00,3388.017383375,-0.8580474853515625,0.4598846435546875,-0.1849517822265625
2024-06-20T17:22:13.337+02:00,3388.027441375,-0.867828369140625,0.4293212890625,-0.2021942138671875
2024-06-20T17:22:13.337+02:00,3388.037498375,-0.8807220458984375,0.403472900390625,-0.2207183837890625
2024-06-20T17:22:13.338+02:00,3388.047556375,-0.8924713134765625,0.3857574462890625,-0.238983154296875
2024-06-20T17:22:13.338+02:00,3388.057614375,-0.901123046875,0.3871002197265625,-0.251373291015625
2024-06-20T17:22:13.338+02:00,3388.067671375,-0.8824462890625,0.4405364990234375,-0.20794677734375
2024-06-20T17:22:13.338+02:00,3388.077729375,-0.88836669921875,0.4550933837890625,-0.212738037109375
2024-06-20T17:22:13.338+02:00,3388.087786375,-0.8864288330078125,0.4485015869140625,-0.2076263427734375
2024-06-20T17:22:13.339+02:00,3388.097844375,-0.86981201171875,0.451568603515625,-0.1961822509765625
2024-06-20T17:22:13.339+02:00,3388.107902375,-0.857330322265625,0.444091796875,-0.2089080810546875
2024-06-20T17:22:13.339+02:00,3388.117959375,-0.853424072265625,0.4449005126953125,-0.2198028564453125
2024-06-20T17:22:13.339+02:00,3388.128017375,-0.86529541015625,0.4319305419921875,-0.2364959716796875
2024-06-20T17:22:13.340+02:00,3388.138074375,-0.88201904296875,0.4147186279296875,-0.25140380859375
2024-06-20T17:22:13.340+02:00,3388.148132375,-0.8887481689453125,0.4232025146484375,-0.2391510009765625
2024-06-20T17:22:13.340+02:00,3388.158190375,-0.9048004150390625,0.4387359619140625,-0.2157745361328125
2024-06-20T17:22:13.340+02:00,3388.168247375,-0.92578125,0.447052001953125,-0.20953369140625
2024-06-20T17:22:13.340+02:00,3388.178305375,-0.9451751708984375,0.4477691650390625,-0.2147369384765625
2024-06-20T17:22:13.341+02:00,3388.188362375,-0.9658966064453125,0.442352294921875,-0.2230377197265625
2024-06-20T17:22:13.341+02:00,3388.198420375,-0.976165771484375,0.455657958984375,-0.2182159423828125
2024-06-20T17:22:13.341+02:00,3388.208478375,-0.975860595703125,0.4678497314453125,-0.2164459228515625
2024-06-20T17:22:13.341+02:00,3388.218535375,-0.97137451171875,0.4959869384765625,-0.2235565185546875
2024-06-20T17:22:13.341+02:00,3388.228593375,-0.9732208251953125,0.5121917724609375,-0.2528228759765625
2024-06-20T17:22:13.342+02:00,3388.238650375,-0.9720916748046875,0.5319061279296875,-0.2778167724609375
2024-06-20T17:22:13.342+02:00,3388.248708375,-0.9656829833984375,0.5374755859375,-0.288177490234375
2024-06-20T17:22:13.342+02:00,3388.258766375,-0.972747802734375,0.470123291015625,-0.3674774169921875
2024-06-20T17:22:13.342+02:00,3388.268823375,-0.961761474609375,0.3211822509765625,-0.5727996826171875
2024-06-20T17:22:13.343+02:00,3388.278881375,-0.86968994140625,0.4462890625,-0.337127685546875
2024-06-20T17:22:13.343+02:00,3388.288938375,-0.929412841796875,0.439697265625,-0.2695159912109375
2024-06-20T17:22:13.343+02:00,3388.298996375,-1.005661010742188,0.3779144287109375,-0.2812042236328125
2024-06-20T17:22:13.343+02:00,3388.309053375,-1.029098510742188,0.4006805419921875,-0.2139129638671875
2024-06-20T17:22:13.343+02:00,3388.319111375,-1.035018920898438,0.42559814453125,-0.1939544677734375
2024-06-20T17:22:13.344+02:00,3388.329169375,-1.0145263671875,0.46270751953125,-0.172088623046875
2024-06-20T17:22:13.344+02:00,3388.339226375,-0.9775238037109375,0.494964599609375,-0.1021270751953125
2024-06-20T17:22:13.344+02:00,3388.349284375,-0.956817626953125,0.49102783203125,-0.0614471435546875
2024-06-20T17:22:13.344+02:00,3388.359341375,-0.953369140625,0.4520721435546875,-0.0413360595703125
2024-06-20T17:22:13.345+02:00,3388.369399375,-0.950927734375,0.4459075927734375,-0.0258026123046875
2024-06-20T17:22:13.345+02:00,3388.379457375,-0.961578369140625,0.4903717041015625,0.00274658203125
2024-06-20T17:22:13.345+02:00,3388.389514375,-0.984375,0.5367431640625,-0.060211181640625
2024-06-20T17:22:13.345+02:00,3388.399572375,-0.994384765625,0.567474365234375,-0.0963287353515625
2024-06-20T17:22:13.346+02:00,3388.409629375,-0.9968414306640625,0.58685302734375,-0.1170654296875
2024-06-20T17:22:13.346+02:00,3388.419687375,-1.009445190429688,0.5650177001953125,-0.1177978515625
2024-06-20T17:22:13.346+02:00,3388.429745375,-1.0250244140625,0.4588470458984375,-0.1252593994140625
2024-06-20T17:22:13.346+02:00,3388.439802375,-1.010345458984375,0.3619232177734375,-0.10638427734375
2024-06-20T17:22:13.347+02:00,3388.449860375,-0.9697113037109375,0.33660888671875,-0.07684326171875
2024-06-20T17:22:13.347+02:00,3388.459917375,-0.90484619140625,0.3455963134765625,-0.076416015625
2024-06-20T17:22:13.347+02:00,3388.469975375,-0.84564208984375,0.418975830078125,-0.0983123779296875
2024-06-20T17:22:13.348+02:00,3388.480033375,-0.8089447021484375,0.4860076904296875,-0.12982177734375
2024-06-20T17:22:13.348+02:00,3388.490090375,-0.7862396240234375,0.479278564453125,-0.1403350830078125
2024-06-20T17:22:13.348+02:00,3388.500148375,-0.7705078125,0.407135009765625,-0.064788818359375
2024-06-20T17:22:13.348+02:00,3388.510205375,-0.7564239501953125,0.3203582763671875,0.0526123046875
2024-06-20T17:22:13.348+02:00,3388.520263375,-0.7507476806640625,0.2852935791015625,0.0794677734375
2024-06-20T17:22:13.349+02:00,3388.530321375,-0.7592926025390625,0.3150177001953125,0.0238037109375
2024-06-20T17:22:13.349+02:00,3388.540378375,-0.78375244140625,0.3899078369140625,-0.0588531494140625
2024-06-20T17:22:13.349+02:00,3388.550436375,-0.802093505859375,0.485260009765625,-0.1131591796875
2024-06-20T17:22:13.349+02:00,3388.560493375,-0.8183135986328125,0.5441131591796875,-0.1205596923828125
2024-06-20T17:22:13.349+02:00,3388.570551375,-0.8419342041015625,0.510772705078125,-0.1124420166015625
2024-06-20T17:22:13.350+02:00,3388.580609375,-0.8660125732421875,0.44805908203125,-0.044891357421875
2024-06-20T17:22:13.350+02:00,3388.590666375,-0.8805694580078125,0.43707275390625,0.0187835693359375
2024-06-20T17:22:13.350+02:00,3388.600724375,-0.874237060546875,0.476348876953125,0.05328369140625
2024-06-20T17:22:13.350+02:00,3388.610781375,-0.8432159423828125,0.55255126953125,0.060455322265625
2024-06-20T17:22:13.351+02:00,3388.620839375,-0.8063812255859375,0.6278228759765625,0.0512237548828125
2024-06-20T17:22:13.351+02:00,3388.630896375,-0.7803192138671875,0.6776275634765625,0.0305023193359375
2024-06-20T17:22:13.351+02:00,3388.640954375,-0.7681884765625,0.6334991455078125,0.062286376953125
2024-06-20T17:22:13.351+02:00,3388.651012375,-0.7874298095703125,0.4866943359375,0.09783935546875
2024-06-20T17:22:13.351+02:00,3388.661069375,-0.8362884521484375,0.2784271240234375,0.1584320068359375
2024-06-20T17:22:13.352+02:00,3388.671127375,-0.8876953125,0.123321533203125,0.2386474609375
2024-06-20T17:22:13.352+02:00,3388.681184375,-0.917938232421875,0.14520263671875,0.264190673828125
2024-06-20T17:22:13.352+02:00,3388.691242375,-0.932373046875,0.3093719482421875,0.1954498291015625
2024-06-20T17:22:13.352+02:00,3388.701300375,-0.938934326171875,0.463134765625,0.0457611083984375
2024-06-20T17:22:13.353+02:00,3388.711357375,-0.93359375,0.5116729736328125,-0.0953216552734375
2024-06-20T17:22:13.353+02:00,3388.721415375,-0.91156005859375,0.4775848388671875,-0.1592559814453125
2024-06-20T17:22:13.353+02:00,3388.731472375,-0.8879547119140625,0.413848876953125,-0.149627685546875
2024-06-20T17:22:13.353+02:00,3388.817992,-0.807464599609375,0.53729248046875,0.03900146484375
2024-06-20T17:22:13.353+02:00,3388.82805,-0.769439697265625,0.47088623046875,0.094512939453125
2024-06-20T17:22:13.354+02:00,3388.838108,-0.7415313720703125,0.439788818359375,0.131439208984375
2024-06-20T17:22:13.354+02:00,3388.848165,-0.73406982421875,0.4839019775390625,0.10247802734375
2024-06-20T17:22:13.354+02:00,3388.858223,-0.7388153076171875,0.549163818359375,0.0445556640625
2024-06-20T17:22:13.354+02:00,3388.86828,-0.7442779541015625,0.58660888671875,0.0120391845703125
2024-06-20T17:22:13.355+02:00,3388.878338,-0.749908447265625,0.58392333984375,0.039215087890625
2024-06-20T17:22:13.355+02:00,3388.888395,-0.7623291015625,0.5630340576171875,0.0890960693359375
2024-06-20T17:22:13.355+02:00,3388.898453,-0.78240966796875,0.5521240234375,0.1021575927734375
2024-06-20T17:22:13.355+02:00,3388.908510916667,-0.7997589111328125,0.556640625,0.0955047607421875
2024-06-20T17:22:13.355+02:00,3388.918567916667,-0.8137054443359375,0.57940673828125,0.093841552734375
2024-06-20T17:22:13.356+02:00,3388.928625916667,-0.8343505859375,0.6112518310546875,0.0883331298828125
2024-06-20T17:22:13.356+02:00,3388.938682916667,-0.8513946533203125,0.644073486328125,0.0877838134765625
2024-06-20T17:22:13.356+02:00,3388.948740916667,-0.8589324951171875,0.65557861328125,0.089080810546875
2024-06-20T17:22:13.356+02:00,3388.958798916667,-0.862396240234375,0.662261962890625,0.0869598388671875
2024-06-20T17:22:13.357+02:00,3388.968855916667,-0.870819091796875,0.678131103515625,0.07470703125
2024-06-20T17:22:13.357+02:00,3388.978913916667,-0.8854522705078125,0.693603515625,0.0532379150390625
2024-06-20T17:22:13.357+02:00,3388.988971916667,-0.9116058349609375,0.702392578125,0.0274200439453125
2024-06-20T17:22:13.357+02:00,3388.999028916667,-0.9324798583984375,0.7084808349609375,-0.0057220458984375
2024-06-20T17:22:13.357+02:00,3389.009086916667,-0.9530029296875,0.7166595458984375,-0.0378570556640625
2024-06-20T17:22:13.358+02:00,3389.019143916667,-0.96612548828125,0.7303466796875,-0.0585784912109375
2024-06-20T17:22:13.358+02:00,3389.029201916667,-0.9557037353515625,0.7335968017578125,-0.0454254150390625
2024-06-20T17:22:13.358+02:00,3389.039258916667,-0.908050537109375,0.7183837890625,-0.004302978515625
2024-06-20T17:22:13.358+02:00,3389.049316916667,-0.8391876220703125,0.69268798828125,0.0359039306640625
2024-06-20T17:22:13.359+02:00,3389.059374916667,-0.7768402099609375,0.6728973388671875,0.051300048828125
2024-06-20T17:22:13.359+02:00,3389.069431916667,-0.726470947265625,0.6618499755859375,0.032318115234375
2024-06-20T17:22:13.359+02:00,3389.079489916667,-0.698211669921875,0.667266845703125,-0.021636962890625
2024-06-20T17:22:13.359+02:00,3389.089546916667,-0.685455322265625,0.67303466796875,-0.094024658203125
2024-06-20T17:22:13.359+02:00,3389.099604916667,-0.6849365234375,0.6899871826171875,-0.1700286865234375
2024-06-20T17:22:13.360+02:00,3389.109662916667,-0.6930999755859375,0.7025909423828125,-0.235809326171875
2024-06-20T17:22:13.360+02:00,3389.119719916667,-0.6968994140625,0.705230712890625,-0.2853240966796875
2024-06-20T17:22:13.360+02:00,3389.129777916667,-0.7035675048828125,0.6958465576171875,-0.308685302734375
2024-06-20T17:22:13.360+02:00,3389.139834916667,-0.717437744140625,0.676788330078125,-0.3163604736328125
2024-06-20T17:22:13.360+02:00,3389.149892916667,-0.75189208984375,0.649810791015625,-0.3120880126953125
2024-06-20T17:22:13.361+02:00,3389.159950916667,-0.79962158203125,0.624969482421875,-0.294281005859375
2024-06-20T17:22:13.361+02:00,3389.170007916667,-0.8553619384765625,0.599853515625,-0.2682037353515625
2024-06-20T17:22:13.361+02:00,3389.180065916667,-0.907012939453125,0.5718841552734375,-0.2474365234375
2024-06-20T17:22:13.361+02:00,3389.190123916667,-0.9495391845703125,0.5567779541015625,-0.2616119384765625
2024-06-20T17:22:13.361+02:00,3389.200180916667,-0.9726409912109375,0.5502471923828125,-0.3011932373046875
2024-06-20T17:22:13.362+02:00,3389.210238916667,-0.9660491943359375,0.544403076171875,-0.3410797119140625
2024-06-20T17:22:13.362+02:00,3389.220295916667,-0.94085693359375,0.5255584716796875,-0.379547119140625
2024-06-20T17:22:13.362+02:00,3389.230353916667,-0.9140777587890625,0.4907073974609375,-0.398223876953125
2024-06-20T17:22:13.363+02:00,3389.240411916667,-0.8961181640625,0.4387054443359375,-0.399200439453125
2024-06-20T17:22:13.363+02:00,3389.250468916667,-0.8781585693359375,0.3801116943359375,-0.394989013671875
2024-06-20T17:22:13.363+02:00,3389.260526916667,-0.8526611328125,0.3220977783203125,-0.392486572265625
2024-06-20T17:22:13.363+02:00,3389.270583916667,-0.8155517578125,0.2709197998046875,-0.4160919189453125
2024-06-20T17:22:13.363+02:00,3389.280641916667,-0.782318115234375,0.232421875,-0.461944580078125
2024-06-20T17:22:13.364+02:00,3389.290698916667,-0.748077392578125,0.20697021484375,-0.5125274658203125
2024-06-20T17:22:13.364+02:00,3389.300756916667,-0.72454833984375,0.194793701171875,-0.56011962890625
2024-06-20T17:22:13.364+02:00,3389.310814916667,-0.7044525146484375,0.22210693359375,-0.565948486328125
2024-06-20T17:22:13.364+02:00,3389.320871916667,-0.6930084228515625,0.28167724609375,-0.5413055419921875
2024-06-20T17:22:13.365+02:00,3389.330929916667,-0.693939208984375,0.3477630615234375,-0.510498046875
2024-06-20T17:22:13.365+02:00,3389.340986916667,-0.7058563232421875,0.3900604248046875,-0.49273681640625
2024-06-20T17:22:13.365+02:00,3389.351044916667,-0.723541259765625,0.4290618896484375,-0.48175048828125
2024-06-20T17:22:13.365+02:00,3389.361102916667,-0.7344970703125,0.469207763671875,-0.4608001708984375
2024-06-20T17:22:13.366+02:00,3389.371159916667,-0.7313079833984375,0.4810028076171875,-0.4451751708984375
2024-06-20T17:22:13.366+02:00,3389.381217916667,-0.711883544921875,0.471038818359375,-0.4856109619140625
2024-06-20T17:22:13.366+02:00,3389.391274916667,-0.6726837158203125,0.5036468505859375,-0.516937255859375
2024-06-20T17:22:13.366+02:00,3389.401332916667,-0.6307525634765625,0.558258056640625,-0.5258941650390625
2024-06-20T17:22:13.367+02:00,3389.411390916667,-0.5944061279296875,0.58209228515625,-0.538787841796875
2024-06-20T17:22:13.367+02:00,3389.421447916667,-0.5623626708984375,0.59765625,-0.538360595703125
2024-06-20T17:22:13.367+02:00,3389.431505916667,-0.537628173828125,0.611663818359375,-0.5392303466796875
2024-06-20T17:22:13.367+02:00,3389.441563916667,-0.5323638916015625,0.6158447265625,-0.524078369140625
2024-06-20T17:22:13.368+02:00,3389.451620916667,-0.540802001953125,0.6104888916015625,-0.500946044921875
2024-06-20T17:22:13.368+02:00,3389.461678916667,-0.5436553955078125,0.5945587158203125,-0.465179443359375
2024-06-20T17:22:13.368+02:00,3389.471735916667,-0.5348663330078125,0.59954833984375,-0.4369964599609375
2024-06-20T17:22:13.368+02:00,3389.481793916667,-0.5168609619140625,0.627471923828125,-0.418060302734375
2024-06-20T17:22:13.368+02:00,3389.491851916667,-0.48779296875,0.64007568359375,-0.4133453369140625
2024-06-20T17:22:13.369+02:00,3389.501908916667,-0.46002197265625,0.657135009765625,-0.4181365966796875
2024-06-20T17:22:13.369+02:00,3389.511966916667,-0.43292236328125,0.698486328125,-0.42718505859375
2024-06-20T17:22:13.369+02:00,3389.522023916667,-0.40386962890625,0.7464599609375,-0.4325103759765625
2024-06-20T17:22:13.369+02:00,3389.532081916667,-0.3745574951171875,0.7858123779296875,-0.435516357421875
2024-06-20T17:22:13.370+02:00,3389.542138916667,-0.3502349853515625,0.804595947265625,-0.4287567138671875
2024-06-20T17:22:13.370+02:00,3389.552196916667,-0.33038330078125,0.8031005859375,-0.3974456787109375
2024-06-20T17:22:13.370+02:00,3389.562254916667,-0.320159912109375,0.7970428466796875,-0.356353759765625
2024-06-20T17:22:13.370+02:00,3389.572311916667,-0.3137359619140625,0.7806549072265625,-0.3212738037109375
2024-06-20T17:22:13.370+02:00,3389.582369916667,-0.3007659912109375,0.769287109375,-0.3020172119140625
2024-06-20T17:22:13.371+02:00,3389.592426916667,-0.2824249267578125,0.7702789306640625,-0.2659454345703125
2024-06-20T17:22:13.371+02:00,3389.602484916667,-0.2628326416015625,0.7735595703125,-0.2357177734375
2024-06-20T17:22:13.371+02:00,3389.612542916667,-0.2435150146484375,0.7730712890625,-0.229888916015625
2024-06-20T17:22:13.371+02:00,3389.622599916667,-0.2303314208984375,0.75921630859375,-0.2308807373046875
2024-06-20T17:22:13.371+02:00,3389.632657916667,-0.223968505859375,0.746673583984375,-0.229705810546875
2024-06-20T17:22:13.372+02:00,3389.642715916667,-0.2296295166015625,0.7401123046875,-0.22003173828125
2024-06-20T17:22:13.372+02:00,3389.652772916667,-0.2370452880859375,0.7298126220703125,-0.19970703125
2024-06-20T17:22:13.372+02:00,3389.662830916667,-0.2462310791015625,0.715606689453125,-0.1697845458984375
2024-06-20T17:22:13.372+02:00,3389.672887916667,-0.24969482421875,0.7082672119140625,-0.130096435546875
2024-06-20T17:22:13.373+02:00,3389.682945916667,-0.2524566650390625,0.7030792236328125,-0.07861328125
2024-06-20T17:22:13.373+02:00,3389.693003916667,-0.25689697265625,0.7125396728515625,-0.0077972412109375
2024-06-20T17:22:13.373+02:00,3389.703060916667,-0.2696380615234375,0.75140380859375,0.07183837890625
2024-06-20T17:22:13.373+02:00,3389.713118916667,-0.302490234375,0.7779388427734375,0.133453369140625
2024-06-20T17:22:13.373+02:00,3389.723175916667,-0.3460845947265625,0.7916717529296875,0.1554107666015625
2024-06-20T17:22:13.374+02:00,3389.733233916667,-0.384796142578125,0.8132476806640625,0.1610870361328125
2024-06-20T17:22:13.374+02:00,3389.743291916667,-0.4160003662109375,0.84539794921875,0.153350830078125
2024-06-20T17:22:13.374+02:00,3389.753348916667,-0.4481658935546875,0.875518798828125,0.1300048828125
2024-06-20T17:22:13.374+02:00,3389.763406916667,-0.487457275390625,0.9117889404296875,0.09832763671875
2024-06-20T17:22:13.375+02:00,3389.773463916667,-0.528717041015625,0.9489593505859375,0.0869903564453125
2024-06-20T17:22:13.375+02:00,3389.783521916667,-0.5655364990234375,0.9793243408203125,0.121734619140625
2024-06-20T17:22:13.375+02:00,3389.793579916667,-0.596588134765625,0.981292724609375,0.1678619384765625
2024-06-20T17:22:13.375+02:00,3389.803636916667,-0.6390533447265625,0.97161865234375,0.238372802734375
2024-06-20T17:22:13.375+02:00,3389.813694916667,-0.70330810546875,0.9770355224609375,0.321258544921875
2024-06-20T17:22:13.376+02:00,3389.823751916667,-0.7808990478515625,0.98541259765625,0.3536834716796875
2024-06-20T17:22:13.376+02:00,3389.833809916667,-0.8588409423828125,1.001663208007812,0.337310791015625
2024-06-20T17:22:13.376+02:00,3389.843867916667,-0.8930206298828125,1.027450561523438,0.313812255859375
2024-06-20T17:22:13.376+02:00,3389.853925375,-0.8661041259765625,1.050643920898438,0.285430908203125
2024-06-20T17:22:13.376+02:00,3389.948611125,0.2031402587890625,-0.257568359375,-0.848236083984375
2024-06-20T17:22:13.377+02:00,3389.958668125,0.2093505859375,-0.1985015869140625,-0.8614501953125
2024-06-20T17:22:13.377+02:00,3389.968726125,0.2175445556640625,-0.17083740234375,-0.8828125
2024-06-20T17:22:13.377+02:00,3389.978783125,0.20635986328125,-0.1790008544921875,-0.8959808349609375
2024-06-20T17:22:13.377+02:00,3389.988841125,0.184326171875,-0.2224273681640625,-0.8715667724609375
2024-06-20T17:22:13.378+02:00,3389.998898125,0.16253662109375,-0.2705535888671875,-0.824249267578125
2024-06-20T17:22:13.378+02:00,3390.008956125,0.1540069580078125,-0.2889251708984375,-0.767059326171875
2024-06-20T17:22:13.378+02:00,3390.019014125,0.168701171875,-0.277313232421875,-0.7351837158203125
2024-06-20T17:22:13.378+02:00,3390.029071125,0.1887359619140625,-0.265899658203125,-0.7481689453125
2024-06-20T17:22:13.379+02:00,3390.039129125,0.189544677734375,-0.2374420166015625,-0.7838134765625
2024-06-20T17:22:13.379+02:00,3390.049186125,0.178924560546875,-0.20501708984375,-0.8148651123046875
2024-06-20T17:22:13.379+02:00,3390.059244125,0.1561737060546875,-0.2075653076171875,-0.8463134765625
2024-06-20T17:22:13.379+02:00,3390.069301125,0.1197357177734375,-0.2313690185546875,-0.8746795654296875
2024-06-20T17:22:13.379+02:00,3390.079359125,0.07305908203125,-0.2442626953125,-0.892059326171875
2024-06-20T17:22:13.380+02:00,3390.089417125,0.0237579345703125,-0.28369140625,-0.878448486328125
2024-06-20T17:22:13.380+02:00,3390.099474125,-0.0023345947265625,-0.319580078125,-0.8456573486328125
2024-06-20T17:22:13.380+02:00,3390.109532125,-0.0161895751953125,-0.315582275390625,-0.794586181640625
2024-06-20T17:22:13.380+02:00,3390.119589125,-0.0152587890625,-0.2786712646484375,-0.758819580078125
2024-06-20T17:22:13.381+02:00,3390.129647125,0.003662109375,-0.2528533935546875,-0.7352142333984375
2024-06-20T17:22:13.381+02:00,3390.139704125,0.012664794921875,-0.27984619140625,-0.7093658447265625
2024-06-20T17:22:13.381+02:00,3390.149762125,-0.0094451904296875,-0.3532562255859375,-0.696441650390625
2024-06-20T17:22:13.382+02:00,3390.159820125,-0.0382537841796875,-0.377227783203125,-0.6883392333984375
2024-06-20T17:22:13.382+02:00,3390.169877125,-0.0509490966796875,-0.318267822265625,-0.6964263916015625
2024-06-20T17:22:13.382+02:00,3390.179935125,-0.061859130859375,-0.2397918701171875,-0.77423095703125
2024-06-20T17:22:13.382+02:00,3390.189992125,-0.0708465576171875,-0.18157958984375,-0.8101043701171875
2024-06-20T17:22:13.383+02:00,3390.200050125,-0.0817413330078125,-0.147705078125,-0.82598876953125
2024-06-20T17:22:13.383+02:00,3390.210108125,-0.090606689453125,-0.1339874267578125,-0.7977294921875
2024-06-20T17:22:13.383+02:00,3390.220165125,-0.085540771484375,-0.1276702880859375,-0.8308868408203125
2024-06-20T17:22:13.383+02:00,3390.230223125,-0.0399627685546875,-0.1439361572265625,-0.8588104248046875
2024-06-20T17:22:13.384+02:00,3390.240280125,0.01898193359375,-0.1089324951171875,-0.8372802734375
2024-06-20T17:22:13.384+02:00,3390.250338125,0.0588226318359375,-0.0854644775390625,-0.839752197265625
2024-06-20T17:22:13.384+02:00,3390.260395125,0.0901336669921875,-0.128936767578125,-0.8658599853515625
2024-06-20T17:22:13.384+02:00,3390.270453125,0.1009674072265625,-0.153045654296875,-0.9122314453125
2024-06-20T17:22:13.385+02:00,3390.280511125,0.07196044921875,-0.127471923828125,-1.024154663085938
2024-06-20T17:22:13.385+02:00,3390.290568125,0.00811767578125,-0.07318115234375,-1.131515502929688
2024-06-20T17:22:13.385+02:00,3390.300626125,-0.081024169921875,0.0552825927734375,-1.206298828125
2024-06-20T17:22:13.385+02:00,3390.310683125,-0.1563568115234375,0.171112060546875,-1.208755493164062
2024-06-20T17:22:13.385+02:00,3390.320741125,-0.1737213134765625,0.2147674560546875,-1.112686157226562
2024-06-20T17:22:13.386+02:00,3390.330798125,-0.1373138427734375,0.2395782470703125,-0.9918212890625
2024-06-20T17:22:13.386+02:00,3390.340856125,-0.0768890380859375,0.26983642578125,-0.8467864990234375
2024-06-20T17:22:13.386+02:00,3390.350914125,-0.0160980224609375,0.313690185546875,-0.7854766845703125
2024-06-20T17:22:13.386+02:00,3390.360971125,0.010955810546875,0.3413238525390625,-0.843963623046875
2024-06-20T17:22:13.387+02:00,3390.371029125,-0.011810302734375,0.3781890869140625,-0.862884521484375
2024-06-20T17:22:13.387+02:00,3390.381086125,-0.0732879638671875,0.362213134765625,-0.7970428466796875
2024-06-20T17:22:13.387+02:00,3390.391144125,-0.172088623046875,0.3026885986328125,-0.752838134765625
2024-06-20T17:22:13.387+02:00,3390.401201125,-0.282867431640625,0.2727203369140625,-0.7598114013671875
2024-06-20T17:22:13.388+02:00,3390.411259125,-0.3816680908203125,0.299713134765625,-0.747589111328125
2024-06-20T17:22:13.388+02:00,3390.421317125,-0.454010009765625,0.351898193359375,-0.7735595703125
2024-06-20T17:22:13.388+02:00,3390.431374125,-0.4723358154296875,0.4427490234375,-0.83673095703125
2024-06-20T17:22:13.388+02:00,3390.441432125,-0.439849853515625,0.5101165771484375,-0.9053955078125
2024-06-20T17:22:13.389+02:00,3390.451489125,-0.3623046875,0.4944915771484375,-0.966827392578125
2024-06-20T17:22:13.389+02:00,3390.461547125,-0.296142578125,0.4459075927734375,-0.9373321533203125
2024-06-20T17:22:13.389+02:00,3390.471604125,-0.2830810546875,0.3783416748046875,-0.873138427734375
2024-06-20T17:22:13.389+02:00,3390.481662125,-0.3194580078125,0.3281097412109375,-0.7593536376953125
2024-06-20T17:22:13.389+02:00,3390.491720125,-0.372894287109375,0.3087921142578125,-0.6411590576171875
2024-06-20T17:22:13.390+02:00,3390.501777125,-0.4402313232421875,0.3190460205078125,-0.60101318359375
2024-06-20T17:22:13.390+02:00,3390.511835125,-0.5218048095703125,0.3910675048828125,-0.6046142578125
2024-06-20T17:22:13.390+02:00,3390.521892125,-0.59429931640625,0.5194244384765625,-0.6487579345703125
2024-06-20T17:22:13.390+02:00,3390.531950125,-0.6186676025390625,0.729156494140625,-0.5521697998046875
2024-06-20T17:22:13.391+02:00,3390.542007125,-0.651031494140625,0.993133544921875,-0.404266357421875
2024-06-20T17:22:13.391+02:00,3390.552065125,-0.7179718017578125,1.077438354492188,-0.4854583740234375
2024-06-20T17:22:13.391+02:00,3390.562123125,-0.7032623291015625,0.9316558837890625,-0.612091064453125
2024-06-20T17:22:13.392+02:00,3390.572180125,-0.661895751953125,0.86126708984375,-0.5988311767578125
2024-06-20T17:22:13.392+02:00,3390.582238125,-0.6493377685546875,0.85784912109375,-0.515411376953125
2024-06-20T17:22:13.392+02:00,3390.592295125,-0.685791015625,0.7920379638671875,-0.5603179931640625
2024-06-20T17:22:13.392+02:00,3390.602353125,-0.7149810791015625,0.65020751953125,-0.7478790283203125
2024-06-20T17:22:13.392+02:00,3390.612410125,-0.7126922607421875,0.65899658203125,-0.683868408203125
2024-06-20T17:22:13.393+02:00,3390.622468125,-0.7693023681640625,0.7794189453125,-0.4336700439453125
2024-06-20T17:22:13.393+02:00,3390.632526125,-0.8382720947265625,0.893707275390625,-0.506103515625
2024-06-20T17:22:13.393+02:00,3390.642583125,-0.747650146484375,0.865936279296875,-0.56787109375
2024-06-20T17:22:13.393+02:00,3390.652641125,-0.6273651123046875,0.782745361328125,-0.560089111328125
2024-06-20T17:22:13.394+02:00,3390.662698125,-0.590484619140625,0.7782745361328125,-0.5728607177734375
2024-06-20T17:22:13.394+02:00,3390.672756125,-0.584869384765625,0.7652130126953125,-0.501556396484375
2024-06-20T17:22:13.394+02:00,3390.682814125,-0.6150360107421875,0.7225341796875,-0.472137451171875
2024-06-20T17:22:13.394+02:00,3390.692871125,-0.64825439453125,0.6871337890625,-0.4517974853515625
2024-06-20T17:22:13.394+02:00,3390.702929125,-0.6573638916015625,0.6476593017578125,-0.4004058837890625
2024-06-20T17:22:13.395+02:00,3390.712986125,-0.664398193359375,0.632171630859375,-0.38037109375
2024-06-20T17:22:13.395+02:00,3390.723044125,-0.6721954345703125,0.6604461669921875,-0.3745880126953125
2024-06-20T17:22:13.395+02:00,3390.733101125,-0.69366455078125,0.7123870849609375,-0.3735198974609375
2024-06-20T17:22:13.395+02:00,3390.743159125,-0.728302001953125,0.775482177734375,-0.4088897705078125
2024-06-20T17:22:13.396+02:00,3390.753217125,-0.7659912109375,0.833892822265625,-0.4281158447265625
2024-06-20T17:22:13.396+02:00,3390.763274125,-0.7915802001953125,0.8647003173828125,-0.42828369140625
2024-06-20T17:22:13.396+02:00,3390.773332125,-0.7867584228515625,0.8682708740234375,-0.4315185546875
2024-06-20T17:22:13.396+02:00,3390.783389125,-0.753692626953125,0.8447113037109375,-0.420013427734375
2024-06-20T17:22:13.396+02:00,3390.793447125,-0.7175140380859375,0.7966156005859375,-0.39727783203125
2024-06-20T17:22:13.397+02:00,3390.803504125,-0.6927490234375,0.7427978515625,-0.3754119873046875
2024-06-20T17:22:13.397+02:00,3390.813562125,-0.6781158447265625,0.706695556640625,-0.3502349853515625
2024-06-20T17:22:13.397+02:00,3390.823620125,-0.6745147705078125,0.6854095458984375,-0.3335113525390625
2024-06-20T17:22:13.397+02:00,3390.833677125,-0.683746337890625,0.662109375,-0.3321533203125
2024-06-20T17:22:13.398+02:00,3390.843735125,-0.697235107421875,0.65087890625,-0.3459320068359375
2024-06-20T17:22:13.398+02:00,3390.853792125,-0.7081146240234375,0.64569091796875,-0.35882568359375
2024-06-20T17:22:13.398+02:00,3390.863850125,-0.71319580078125,0.6372222900390625,-0.3659515380859375
2024-06-20T17:22:13.399+02:00,3390.873907125,-0.7179718017578125,0.6164703369140625,-0.3804779052734375
2024-06-20T17:22:13.399+02:00,3390.883965125,-0.7248687744140625,0.589996337890625,-0.4268646240234375
2024-06-20T17:22:13.399+02:00,3390.894023125,-0.7059326171875,0.5655517578125,-0.4181365966796875
2024-06-20T17:22:13.399+02:00,3390.904080125,-0.6806793212890625,0.547393798828125,-0.33544921875
2024-06-20T17:22:13.400+02:00,3390.914138125,-0.6864013671875,0.541259765625,-0.2496490478515625
2024-06-20T17:22:13.400+02:00,3390.924194291667,-0.7098541259765625,0.5534820556640625,-0.1709442138671875
2024-06-20T17:22:13.400+02:00,3390.934252291667,-0.72918701171875,0.5812530517578125,-0.13525390625
2024-06-20T17:22:13.400+02:00,3390.944309291667,-0.7545166015625,0.5903472900390625,-0.214508056640625
2024-06-20T17:22:13.401+02:00,3390.954367291667,-0.759246826171875,0.592926025390625,-0.28289794921875
2024-06-20T17:22:13.401+02:00,3390.964425291667,-0.772796630859375,0.57513427734375,-0.3164520263671875
2024-06-20T17:22:13.401+02:00,3390.974482291667,-0.8057403564453125,0.531524658203125,-0.353607177734375
2024-06-20T17:22:13.401+02:00,3390.984540291667,-0.8195037841796875,0.520599365234375,-0.3291015625
2024-06-20T17:22:13.402+02:00,3390.994597291667,-0.8022613525390625,0.580535888671875,-0.223846435546875
2024-06-20T17:22:13.402+02:00,3391.004655291667,-0.7919769287109375,0.5964508056640625,-0.13433837890625
2024-06-20T17:22:13.402+02:00,3391.014712291667,-0.7916259765625,0.525482177734375,-0.137664794921875
2024-06-20T17:22:13.402+02:00,3391.024770291667,-0.7937164306640625,0.4970855712890625,-0.1327972412109375
2024-06-20T17:22:13.402+02:00,3391.034828291667,-0.811859130859375,0.51153564453125,-0.172607421875
2024-06-20T17:22:13.403+02:00,3391.044885291667,-0.839080810546875,0.5806884765625,-0.2382049560546875
2024-06-20T17:22:13.403+02:00,3391.054943291667,-0.8562164306640625,0.67669677734375,-0.22991943359375
2024-06-20T17:22:13.403+02:00,3391.065000291667,-0.8532257080078125,0.6399993896484375,-0.205780029296875
2024-06-20T17:22:13.403+02:00,3391.075058291667,-0.8552398681640625,0.5069732666015625,-0.204620361328125
2024-06-20T17:22:13.404+02:00,3391.085116291667,-0.8548736572265625,0.4323577880859375,-0.177459716796875
2024-06-20T17:22:13.404+02:00,3391.095173291667,-0.855133056640625,0.4267425537109375,-0.1403961181640625
2024-06-20T17:22:13.404+02:00,3391.105231291667,-0.8496856689453125,0.438018798828125,-0.1485748291015625
2024-06-20T17:22:13.404+02:00,3391.115288291667,-0.8434906005859375,0.4855194091796875,-0.15435791015625
2024-06-20T17:22:13.404+02:00,3391.125346291667,-0.8360137939453125,0.553985595703125,-0.1421356201171875
2024-06-20T17:22:13.405+02:00,3391.135403291667,-0.825408935546875,0.602203369140625,-0.1502227783203125
2024-06-20T17:22:13.405+02:00,3391.145461291667,-0.7970428466796875,0.6368560791015625,-0.1820831298828125
2024-06-20T17:22:13.405+02:00,3391.155519291667,-0.7671051025390625,0.635009765625,-0.214996337890625
2024-06-20T17:22:13.405+02:00,3391.165576291667,-0.7566680908203125,0.5670623779296875,-0.22662353515625
2024-06-20T17:22:13.406+02:00,3391.175634291667,-0.764251708984375,0.479095458984375,-0.189422607421875
2024-06-20T17:22:13.406+02:00,3391.185691291667,-0.7686309814453125,0.3900909423828125,-0.11871337890625
2024-06-20T17:22:13.406+02:00,3391.195749291667,-0.7904510498046875,0.337554931640625,-0.116729736328125
2024-06-20T17:22:13.406+02:00,3391.205806291667,-0.7964019775390625,0.344085693359375,-0.1257781982421875
2024-06-20T17:22:13.407+02:00,3391.215864291667,-0.798095703125,0.395172119140625,-0.144287109375
2024-06-20T17:22:13.407+02:00,3391.225922291667,-0.8106689453125,0.459686279296875,-0.16925048828125
2024-06-20T17:22:13.407+02:00,3391.235979291667,-0.8385772705078125,0.51348876953125,-0.191436767578125
2024-06-20T17:22:13.407+02:00,3391.246037291667,-0.8581390380859375,0.54571533203125,-0.1929168701171875
2024-06-20T17:22:13.407+02:00,3391.256094291667,-0.87896728515625,0.55023193359375,-0.188385009765625
2024-06-20T17:22:13.408+02:00,3391.266152291667,-0.899658203125,0.5243988037109375,-0.1679840087890625
2024-06-20T17:22:13.408+02:00,3391.276210291667,-0.9242401123046875,0.4752044677734375,-0.1422882080078125
2024-06-20T17:22:13.408+02:00,3391.286267291667,-0.94183349609375,0.429229736328125,-0.111358642578125
2024-06-20T17:22:13.408+02:00,3391.296325291667,-0.9438629150390625,0.399200439453125,-0.078155517578125
2024-06-20T17:22:13.408+02:00,3391.306382291667,-0.9385833740234375,0.39776611328125,-0.085357666015625
2024-06-20T17:22:13.409+02:00,3391.316440291667,-0.92413330078125,0.415374755859375,-0.1052703857421875
2024-06-20T17:22:13.409+02:00,3391.326497291667,-0.9099273681640625,0.43896484375,-0.1245880126953125
2024-06-20T17:22:13.409+02:00,3391.336555291667,-0.9108428955078125,0.46044921875,-0.1515655517578125
2024-06-20T17:22:13.409+02:00,3391.346612291667,-0.9159698486328125,0.4783782958984375,-0.16845703125
2024-06-20T17:22:13.410+02:00,3391.356670291667,-0.9275360107421875,0.4840850830078125,-0.164520263671875
2024-06-20T17:22:13.410+02:00,3391.366728291667,-0.9456634521484375,0.4697723388671875,-0.1648101806640625
2024-06-20T17:22:13.410+02:00,3391.376785291667,-0.9623565673828125,0.4272003173828125,-0.1948089599609375
2024-06-20T17:22:13.411+02:00,3391.386843291667,-0.9687652587890625,0.373748779296875,-0.21380615234375
2024-06-20T17:22:13.411+02:00,3391.396900291667,-0.9605560302734375,0.3461151123046875,-0.1584014892578125
2024-06-20T17:22:13.411+02:00,3391.406958291667,-0.9503936767578125,0.3379364013671875,-0.069427490234375
2024-06-20T17:22:13.411+02:00,3391.417016291667,-0.9613189697265625,0.3797149658203125,-0.0247802734375
2024-06-20T17:22:13.411+02:00,3391.427073291667,-0.9773406982421875,0.4947967529296875,0.0126800537109375
2024-06-20T17:22:13.412+02:00,3391.437131291667,-0.98736572265625,0.6595306396484375,0.047637939453125
2024-06-20T17:22:13.412+02:00,3391.447188291667,-0.9972991943359375,0.8628997802734375,0.07012939453125
2024-06-20T17:22:13.412+02:00,3391.457246291667,-1.016372680664062,1.059326171875,0.036865234375
2024-06-20T17:22:13.412+02:00,3391.467303291667,-1.047271728515625,1.161376953125,-0.073699951171875
2024-06-20T17:22:13.413+02:00,3391.477361291667,-1.055328369140625,1.118423461914062,-0.217254638671875
2024-06-20T17:22:13.413+02:00,3391.487419291667,-0.977294921875,0.912017822265625,-0.3148040771484375
2024-06-20T17:22:13.413+02:00,3391.497476291667,-0.85406494140625,0.6240234375,-0.28778076171875
2024-06-20T17:22:13.413+02:00,3391.507534291667,-0.7274932861328125,0.403350830078125,-0.1826324462890625
2024-06-20T17:22:13.413+02:00,3391.517591291667,-0.638946533203125,0.455078125,0.0198974609375
2024-06-20T17:22:13.414+02:00,3391.527649291667,-0.6485443115234375,0.538299560546875,0.128265380859375
2024-06-20T17:22:13.414+02:00,3391.537706291667,-0.6849517822265625,0.6065216064453125,0.0137939453125
2024-06-20T17:22:13.414+02:00,3391.547764291667,-0.6805877685546875,0.7126922607421875,-0.080535888671875
2024-06-20T17:22:13.414+02:00,3391.557822291667,-0.656768798828125,0.764068603515625,-0.1285400390625
2024-06-20T17:22:13.415+02:00,3391.567879291667,-0.6508941650390625,0.8611602783203125,-0.1014251708984375
2024-06-20T17:22:13.415+02:00,3391.577937291667,-0.6827239990234375,0.9501190185546875,-0.0428924560546875
2024-06-20T17:22:13.415+02:00,3391.587994291667,-0.72021484375,0.9531402587890625,-0.040130615234375
2024-06-20T17:22:13.415+02:00,3391.598052291667,-0.7565765380859375,0.9334564208984375,0.0034637451171875
2024-06-20T17:22:13.416+02:00,3391.608109291667,-0.7827301025390625,0.839996337890625,0.0175628662109375
2024-06-20T17:22:13.416+02:00,3391.618167291667,-0.774993896484375,0.8446044921875,0.083831787109375
2024-06-20T17:22:13.416+02:00,3391.628225291667,-0.773406982421875,0.923797607421875,0.1397857666015625
2024-06-20T17:22:13.416+02:00,3391.638282291667,-0.7631988525390625,0.900054931640625,0.1057586669921875
2024-06-20T17:22:13.417+02:00,3391.648340291667,-0.7100830078125,0.8346405029296875,0.0589141845703125
2024-06-20T17:22:13.417+02:00,3391.658397291667,-0.6368865966796875,0.772216796875,0.0606842041015625
2024-06-20T17:22:13.417+02:00,3391.668455291667,-0.594696044921875,0.71875,0.0844268798828125
2024-06-20T17:22:13.418+02:00,3391.678512291667,-0.58660888671875,0.72100830078125,0.116241455078125
2024-06-20T17:22:13.418+02:00,3391.688570291667,-0.6175994873046875,0.6916961669921875,0.0866546630859375
2024-06-20T17:22:13.418+02:00,3391.698628291667,-0.608795166015625,0.5688018798828125,0.04815673828125
2024-06-20T17:22:13.418+02:00,3391.708685291667,-0.552520751953125,0.4989013671875,0.0923614501953125
2024-06-20T17:22:13.418+02:00,3391.718743291667,-0.5287933349609375,0.5610198974609375,0.19512939453125
2024-06-20T17:22:13.419+02:00,3391.728800291667,-0.55859375,0.6393280029296875,0.2308502197265625
2024-06-20T17:22:13.419+02:00,3391.738858291667,-0.6028900146484375,0.6882171630859375,0.2166748046875
2024-06-20T17:22:13.419+02:00,3391.748916291667,-0.6345977783203125,0.7390594482421875,0.175872802734375
2024-06-20T17:22:13.419+02:00,3391.758973291667,-0.6314697265625,0.7882843017578125,0.1708526611328125
2024-06-20T17:22:13.420+02:00,3391.769031291667,-0.611785888671875,0.8280181884765625,0.169708251953125
2024-06-20T17:22:13.420+02:00,3391.779088291667,-0.588348388671875,0.8128662109375,0.1409454345703125
2024-06-20T17:22:13.420+02:00,3391.789146291667,-0.561279296875,0.794830322265625,0.1339874267578125
2024-06-20T17:22:13.420+02:00,3391.799203291667,-0.5459442138671875,0.788299560546875,0.1428985595703125
2024-06-20T17:22:13.420+02:00,3391.809261291667,-0.5207366943359375,0.7675628662109375,0.171966552734375
2024-06-20T17:22:13.421+02:00,3391.819319291667,-0.4954986572265625,0.772735595703125,0.223052978515625
2024-06-20T17:22:13.421+02:00,3391.829376291667,-0.4919281005859375,0.7662200927734375,0.2581634521484375
2024-06-20T17:22:13.421+02:00,3391.839434291667,-0.4921722412109375,0.7523040771484375,0.2583770751953125
2024-06-20T17:22:13.422+02:00,3391.849491291667,-0.49090576171875,0.7525177001953125,0.2795867919921875
2024-06-20T17:22:13.422+02:00,3391.859549291667,-0.4969940185546875,0.7596588134765625,0.3255615234375
2024-06-20T17:22:13.422+02:00,3391.869606291667,-0.5129547119140625,0.775482177734375,0.3704376220703125
2024-06-20T17:22:13.422+02:00,3391.879664291667,-0.523162841796875,0.7948455810546875,0.3723907470703125
2024-06-20T17:22:13.423+02:00,3391.889722291667,-0.513916015625,0.8234405517578125,0.3377685546875
2024-06-20T17:22:13.423+02:00,3391.899779291667,-0.4864501953125,0.852508544921875,0.3184661865234375
2024-06-20T17:22:13.423+02:00,3391.909837291667,-0.454376220703125,0.8579559326171875,0.3131256103515625
2024-06-20T17:22:13.423+02:00,3391.919894291667,-0.4279632568359375,0.84906005859375,0.313446044921875
2024-06-20T17:22:13.424+02:00,3391.929953375,-0.410919189453125,0.834197998046875,0.3156890869140625
2024-06-20T17:22:13.424+02:00,3391.940010375,-0.3998565673828125,0.8271331787109375,0.3389434814453125
2024-06-20T17:22:13.424+02:00,3391.950068375,-0.3891448974609375,0.8157196044921875,0.3654327392578125
2024-06-20T17:22:13.424+02:00,3391.960126375,-0.3831939697265625,0.8079681396484375,0.379669189453125
2024-06-20T17:22:13.425+02:00,3391.970183375,-0.3780059814453125,0.8243560791015625,0.3924407958984375
2024-06-20T17:22:13.425+02:00,3391.980241375,-0.38055419921875,0.8383636474609375,0.388092041015625
2024-06-20T17:22:13.425+02:00,3391.990298375,-0.381561279296875,0.8529510498046875,0.3769073486328125
2024-06-20T17:22:13.425+02:00,3392.000356375,-0.3810272216796875,0.88336181640625,0.3676910400390625
2024-06-20T17:22:13.426+02:00,3392.010413375,-0.3792266845703125,0.9201812744140625,0.3566131591796875
2024-06-20T17:22:13.426+02:00,3392.020471375,-0.3702392578125,0.9310302734375,0.3384857177734375
2024-06-20T17:22:13.426+02:00,3392.030529375,-0.35992431640625,0.9241790771484375,0.3215484619140625
2024-06-20T17:22:13.426+02:00,3392.040586375,-0.339996337890625,0.8863983154296875,0.31304931640625
2024-06-20T17:22:13.426+02:00,3392.050644375,-0.3169708251953125,0.86297607421875,0.3291015625
2024-06-20T17:22:13.427+02:00,3392.060701375,-0.3079681396484375,0.8515777587890625,0.356170654296875
2024-06-20T17:22:13.427+02:00,3392.070759375,-0.314666748046875,0.8481903076171875,0.3711090087890625
2024-06-20T17:22:13.427+02:00,3392.080817375,-0.31817626953125,0.8522491455078125,0.3749847412109375
2024-06-20T17:22:13.427+02:00,3392.090874375,-0.314483642578125,0.851043701171875,0.3692474365234375
2024-06-20T17:22:13.428+02:00,3392.100932375,-0.3088531494140625,0.858062744140625,0.3592071533203125
2024-06-20T17:22:13.428+02:00,3392.110989375,-0.3174591064453125,0.847900390625,0.3237457275390625
2024-06-20T17:22:13.428+02:00,3392.121047375,-0.3235321044921875,0.82391357421875,0.2848358154296875
2024-06-20T17:22:13.428+02:00,3392.131104375,-0.3200531005859375,0.8311767578125,0.274017333984375
2024-06-20T17:22:13.428+02:00,3392.141162375,-0.3219146728515625,0.832305908203125,0.2652435302734375
2024-06-20T17:22:13.429+02:00,3392.151220375,-0.323211669921875,0.835784912109375,0.2589569091796875
2024-06-20T17:22:13.429+02:00,3392.161277375,-0.3238677978515625,0.8282318115234375,0.25958251953125
2024-06-20T17:22:13.429+02:00,3392.171335375,-0.31878662109375,0.81298828125,0.26739501953125
2024-06-20T17:22:13.429+02:00,3392.181392375,-0.310943603515625,0.79925537109375,0.284820556640625
2024-06-20T17:22:13.430+02:00,3392.191450375,-0.304046630859375,0.8000335693359375,0.301300048828125
2024-06-20T17:22:13.430+02:00,3392.201508375,-0.3093109130859375,0.808929443359375,0.31005859375
2024-06-20T17:22:13.430+02:00,3392.211565375,-0.3099517822265625,0.836639404296875,0.313995361328125
2024-06-20T17:22:13.430+02:00,3392.221623375,-0.319061279296875,0.8862152099609375,0.31146240234375
2024-06-20T17:22:13.430+02:00,3392.231680375,-0.339630126953125,0.9146881103515625,0.28631591796875
2024-06-20T17:22:13.431+02:00,3392.241738375,-0.3533172607421875,0.9474945068359375,0.253570556640625
2024-06-20T17:22:13.431+02:00,3392.251795375,-0.354583740234375,0.972015380859375,0.24761962890625
2024-06-20T17:22:13.431+02:00,3392.261853375,-0.35357666015625,0.9670562744140625,0.2720489501953125
2024-06-20T17:22:13.431+02:00,3392.271911375,-0.3660736083984375,0.9319305419921875,0.2797088623046875
2024-06-20T17:22:13.432+02:00,3392.281968375,-0.3782806396484375,0.8995819091796875,0.274505615234375
2024-06-20T17:22:13.432+02:00,3392.292026375,-0.3663177490234375,0.8790283203125,0.26995849609375
2024-06-20T17:22:13.432+02:00,3392.302083375,-0.3460540771484375,0.848846435546875,0.26934814453125
2024-06-20T17:22:13.433+02:00,3392.312141375,-0.3345947265625,0.83197021484375,0.270904541015625
2024-06-20T17:22:13.433+02:00,3392.322198375,-0.32647705078125,0.838348388671875,0.2815704345703125
2024-06-20T17:22:13.433+02:00,3392.332256375,-0.322113037109375,0.8637237548828125,0.310821533203125
2024-06-20T17:22:13.433+02:00,3392.342314375,-0.332244873046875,0.8991241455078125,0.3318328857421875
2024-06-20T17:22:13.433+02:00,3392.352371375,-0.3603057861328125,0.9233245849609375,0.314117431640625
2024-06-20T17:22:13.434+02:00,3392.362429375,-0.3742828369140625,0.9351043701171875,0.29052734375
2024-06-20T17:22:13.434+02:00,3392.372486375,-0.36932373046875,0.9492034912109375,0.2839813232421875
2024-06-20T17:22:13.434+02:00,3392.382544375,-0.3626556396484375,0.9501495361328125,0.2782745361328125
2024-06-20T17:22:13.434+02:00,3392.392602375,-0.3600616455078125,0.9500274658203125,0.276214599609375
2024-06-20T17:22:13.435+02:00,3392.402659375,-0.35552978515625,0.92449951171875,0.271270751953125
2024-06-20T17:22:13.435+02:00,3392.412717375,-0.3515625,0.88031005859375,0.266387939453125
2024-06-20T17:22:13.435+02:00,3392.422774375,-0.3387908935546875,0.8451080322265625,0.2664794921875
2024-06-20T17:22:13.435+02:00,3392.432832375,-0.321624755859375,0.8336181640625,0.2678070068359375
2024-06-20T17:22:13.435+02:00,3392.442889375,-0.3101806640625,0.842498779296875,0.2646636962890625
2024-06-20T17:22:13.436+02:00,3392.452947375,-0.29962158203125,0.853973388671875,0.2602691650390625
2024-06-20T17:22:13.436+02:00,3392.463005375,-0.2934417724609375,0.906585693359375,0.2859039306640625
2024-06-20T17:22:13.436+02:00,3392.473062375,-0.2936553955078125,0.9234466552734375,0.29156494140625
2024-06-20T17:22:13.436+02:00,3392.483120375,-0.2930908203125,0.9423675537109375,0.305633544921875
2024-06-20T17:22:13.436+02:00,3392.493177375,-0.291229248046875,0.9451446533203125,0.3149566650390625
2024-06-20T17:22:13.437+02:00,3392.503235375,-0.2946014404296875,0.9318084716796875,0.307525634765625
2024-06-20T17:22:13.437+02:00,3392.513292375,-0.2969512939453125,0.928924560546875,0.2993621826171875
2024-06-20T17:22:13.437+02:00,3392.523350375,-0.2933807373046875,0.9258880615234375,0.2898406982421875
2024-06-20T17:22:13.437+02:00,3392.533408375,-0.280059814453125,0.9190521240234375,0.28045654296875
2024-06-20T17:22:13.438+02:00,3392.543465375,-0.2628326416015625,0.915435791015625,0.2794952392578125
2024-06-20T17:22:13.438+02:00,3392.553523375,-0.248443603515625,0.905609130859375,0.2804412841796875
2024-06-20T17:22:13.438+02:00,3392.563580375,-0.2336578369140625,0.927581787109375,0.3150177001953125
2024-06-20T17:22:13.438+02:00,3392.573638375,-0.2378692626953125,0.9502410888671875,0.348663330078125
2024-06-20T17:22:13.438+02:00,3392.583695375,-0.243927001953125,0.9748382568359375,0.3662261962890625
2024-06-20T17:22:13.439+02:00,3392.593753375,-0.252716064453125,0.9931793212890625,0.368621826171875
2024-06-20T17:22:13.439+02:00,3392.603811375,-0.2669830322265625,0.98468017578125,0.3470458984375
2024-06-20T17:22:13.439+02:00,3392.613868375,-0.271087646484375,0.95697021484375,0.3100738525390625
2024-06-20T17:22:13.439+02:00,3392.623926375,-0.2595367431640625,0.9400787353515625,0.2908935546875
2024-06-20T17:22:13.440+02:00,3392.633983375,-0.2508544921875,0.9304351806640625,0.2911834716796875
2024-06-20T17:22:13.440+02:00,3392.644041375,-0.24786376953125,0.94366455078125,0.3102264404296875
2024-06-20T17:22:13.440+02:00,3392.654099375,-0.2539215087890625,0.9756317138671875,0.3383331298828125
2024-06-20T17:22:13.440+02:00,3392.664156375,-0.2657012939453125,0.985870361328125,0.3531341552734375
2024-06-20T17:22:13.441+02:00,3392.674214375,-0.272918701171875,0.970367431640625,0.3505859375
2024-06-20T17:22:13.441+02:00,3392.684271375,-0.2583160400390625,0.9574737548828125,0.3712615966796875
2024-06-20T17:22:13.441+02:00,3392.694329375,-0.2443695068359375,0.979400634765625,0.4036865234375
2024-06-20T17:22:13.441+02:00,3392.704386375,-0.2394561767578125,1.001693725585938,0.4271087646484375
2024-06-20T17:22:13.442+02:00,3392.714444375,-0.235504150390625,1.0084228515625,0.4273681640625
2024-06-20T17:22:13.442+02:00,3392.724502375,-0.2341766357421875,1.017547607421875,0.417510986328125
2024-06-20T17:22:13.442+02:00,3392.734559375,-0.2328033447265625,1.03363037109375,0.405181884765625
2024-06-20T17:22:13.442+02:00,3392.744617375,-0.2318878173828125,1.0303955078125,0.3888397216796875
2024-06-20T17:22:13.442+02:00,3392.754674375,-0.225494384765625,1.002777099609375,0.367645263671875
2024-06-20T17:22:13.443+02:00,3392.764732375,-0.2137298583984375,0.9694366455078125,0.3544464111328125
2024-06-20T17:22:13.443+02:00,3392.774789375,-0.2061004638671875,0.9329986572265625,0.3510894775390625
2024-06-20T17:22:13.443+02:00,3392.784847375,-0.2042388916015625,0.9070587158203125,0.3503570556640625
2024-06-20T17:22:13.443+02:00,3392.794905375,-0.203826904296875,0.904144287109375,0.3616180419921875
2024-06-20T17:22:13.444+02:00,3392.804962375,-0.20758056640625,0.9100494384765625,0.3746337890625
2024-06-20T17:22:13.444+02:00,3392.815020375,-0.2163238525390625,0.914459228515625,0.3785552978515625
2024-06-20T17:22:13.444+02:00,3392.825077375,-0.2279205322265625,0.926239013671875,0.38104248046875
2024-06-20T17:22:13.444+02:00,3392.835135375,-0.2325592041015625,0.9389190673828125,0.381683349609375
2024-06-20T17:22:13.445+02:00,3392.845192375,-0.233428955078125,0.928985595703125,0.36041259765625
2024-06-20T17:22:13.445+02:00,3392.855250375,-0.2232666015625,0.9227294921875,0.3434600830078125
2024-06-20T17:22:13.445+02:00,3392.865308375,-0.20367431640625,0.9144287109375,0.346923828125
2024-06-20T17:22:13.445+02:00,3392.875365375,-0.1901092529296875,0.8798065185546875,0.35076904296875
2024-06-20T17:22:13.445+02:00,3392.885423375,-0.18865966796875,0.8444061279296875,0.3542022705078125
2024-06-20T17:22:13.446+02:00,3392.895480375,-0.1922149658203125,0.8331146240234375,0.363739013671875
2024-06-20T17:22:13.446+02:00,3392.905538375,-0.1913909912109375,0.83038330078125,0.3747711181640625
2024-06-20T17:22:13.446+02:00,3392.915596375,-0.193145751953125,0.8315277099609375,0.3850860595703125
2024-06-20T17:22:13.446+02:00,3392.925653291667,-0.2042999267578125,0.8483123779296875,0.4046173095703125
2024-06-20T17:22:13.447+02:00,3392.935711291667,-0.2249298095703125,0.8770599365234375,0.40771484375
2024-06-20T17:22:13.447+02:00,3392.945768291667,-0.24737548828125,0.9012298583984375,0.405120849609375
2024-06-20T17:22:13.447+02:00,3392.955826291667,-0.258392333984375,0.9232177734375,0.416290283203125
2024-06-20T17:22:13.447+02:00,3392.965883291667,-0.2698516845703125,0.9414520263671875,0.4313507080078125
2024-06-20T17:22:13.447+02:00,3392.975941291667,-0.2865142822265625,0.95379638671875,0.43341064453125
2024-06-20T17:22:13.448+02:00,3392.985999291667,-0.2927703857421875,0.96343994140625,0.4225311279296875
2024-06-20T17:22:13.448+02:00,3392.996056291667,-0.2826995849609375,0.9555511474609375,0.414154052734375
2024-06-20T17:22:13.448+02:00,3393.006114291667,-0.26483154296875,0.940765380859375,0.4066619873046875
2024-06-20T17:22:13.449+02:00,3393.016171291667,-0.2528076171875,0.9165802001953125,0.3845367431640625
2024-06-20T17:22:13.449+02:00,3393.026229291667,-0.2310791015625,0.8848419189453125,0.3524932861328125
2024-06-20T17:22:13.449+02:00,3393.036287291667,-0.1969146728515625,0.853118896484375,0.3231964111328125
2024-06-20T17:22:13.450+02:00,3393.046344291667,-0.1628875732421875,0.8192138671875,0.3036651611328125
2024-06-20T17:22:13.450+02:00,3393.056402291667,-0.140594482421875,0.79779052734375,0.2997589111328125
2024-06-20T17:22:13.450+02:00,3393.066459291667,-0.137786865234375,0.77850341796875,0.289276123046875
2024-06-20T17:22:13.450+02:00,3393.076517291667,-0.145263671875,0.778594970703125,0.2913818359375
2024-06-20T17:22:13.451+02:00,3393.086574291667,-0.158721923828125,0.8104248046875,0.309478759765625
2024-06-20T17:22:13.451+02:00,3393.096632291667,-0.18304443359375,0.85772705078125,0.3279266357421875
2024-06-20T17:22:13.451+02:00,3393.106690291667,-0.21453857421875,0.8936614990234375,0.3254547119140625
2024-06-20T17:22:13.451+02:00,3393.116747291667,-0.2358245849609375,0.935882568359375,0.3247833251953125
2024-06-20T17:22:13.451+02:00,3393.126805291667,-0.25146484375,0.9820404052734375,0.339324951171875
2024-06-20T17:22:13.452+02:00,3393.136862291667,-0.266326904296875,1.031417846679688,0.3621826171875
2024-06-20T17:22:13.452+02:00,3393.146920291667,-0.286102294921875,1.066619873046875,0.3920745849609375
2024-06-20T17:22:13.452+02:00,3393.156977291667,-0.3105316162109375,1.086349487304688,0.4209442138671875
2024-06-20T17:22:13.452+02:00,3393.167035291667,-0.3380584716796875,1.100494384765625,0.4398193359375
2024-06-20T17:22:13.453+02:00,3393.177093291667,-0.3595428466796875,1.096359252929688,0.4465179443359375
2024-06-20T17:22:13.453+02:00,3393.187150291667,-0.3737335205078125,1.077438354492188,0.437744140625
2024-06-20T17:22:13.453+02:00,3393.197208291667,-0.3773040771484375,1.035476684570312,0.398895263671875
2024-06-20T17:22:13.453+02:00,3393.207265291667,-0.358978271484375,0.9839630126953125,0.367218017578125
2024-06-20T17:22:13.454+02:00,3393.217323291667,-0.3350677490234375,0.9183197021484375,0.3443145751953125
2024-06-20T17:22:13.454+02:00,3393.227381291667,-0.3180389404296875,0.8603515625,0.3279266357421875
2024-06-20T17:22:13.454+02:00,3393.237438291667,-0.3148193359375,0.8232269287109375,0.3264617919921875
2024-06-20T17:22:13.454+02:00,3393.247496291667,-0.319580078125,0.7985687255859375,0.33148193359375
2024-06-20T17:22:13.454+02:00,3393.257553291667,-0.333984375,0.79571533203125,0.3487701416015625
2024-06-20T17:22:13.455+02:00,3393.267611291667,-0.3525238037109375,0.80859375,0.356842041015625
2024-06-20T17:22:13.455+02:00,3393.277668291667,-0.368896484375,0.8350677490234375,0.360321044921875
2024-06-20T17:22:13.455+02:00,3393.287726291667,-0.3811187744140625,0.8663482666015625,0.3632354736328125
2024-06-20T17:22:13.455+02:00,3393.297784291667,-0.401519775390625,0.890716552734375,0.3613128662109375
2024-06-20T17:22:13.456+02:00,3393.307841291667,-0.4339752197265625,0.884002685546875,0.32342529296875
2024-06-20T17:22:13.456+02:00,3393.317899291667,-0.4652099609375,0.8415069580078125,0.24615478515625
2024-06-20T17:22:13.456+02:00,3393.327956291667,-0.4708404541015625,0.8217620849609375,0.18707275390625
2024-06-20T17:22:13.456+02:00,3393.338014291667,-0.447998046875,0.8153839111328125,0.153106689453125
2024-06-20T17:22:13.456+02:00,3393.348072291667,-0.4129791259765625,0.7910614013671875,0.132537841796875
2024-06-20T17:22:13.457+02:00,3393.358129291667,-0.3862152099609375,0.753173828125,0.1333160400390625
2024-06-20T17:22:13.457+02:00,3393.368187291667,-0.375091552734375,0.7275390625,0.149871826171875
2024-06-20T17:22:13.457+02:00,3393.378244291667,-0.37591552734375,0.72210693359375,0.167022705078125
2024-06-20T17:22:13.457+02:00,3393.388302291667,-0.386016845703125,0.7374420166015625,0.1776123046875
2024-06-20T17:22:13.458+02:00,3393.398359291667,-0.3971099853515625,0.764129638671875,0.1787109375
2024-06-20T17:22:13.458+02:00,3393.408417291667,-0.407684326171875,0.7872314453125,0.175079345703125
2024-06-20T17:22:13.458+02:00,3393.418475291667,-0.42218017578125,0.8062896728515625,0.166351318359375
2024-06-20T17:22:13.458+02:00,3393.428532291667,-0.4418182373046875,0.8117218017578125,0.1505584716796875
2024-06-20T17:22:13.458+02:00,3393.438590291667,-0.461151123046875,0.80316162109375,0.134490966796875
2024-06-20T17:22:13.459+02:00,3393.448647291667,-0.4690093994140625,0.7907867431640625,0.125640869140625
2024-06-20T17:22:13.459+02:00,3393.458705291667,-0.458831787109375,0.793731689453125,0.13720703125
2024-06-20T17:22:13.459+02:00,3393.468763291667,-0.438995361328125,0.802764892578125,0.1479339599609375
2024-06-20T17:22:13.459+02:00,3393.478820291667,-0.418212890625,0.80865478515625,0.153717041015625
2024-06-20T17:22:13.460+02:00,3393.488878291667,-0.40374755859375,0.82476806640625,0.1699676513671875
2024-06-20T17:22:13.460+02:00,3393.498935291667,-0.4008941650390625,0.8492889404296875,0.1938934326171875
2024-06-20T17:22:13.460+02:00,3393.508993291667,-0.411468505859375,0.8723907470703125,0.19769287109375
2024-06-20T17:22:13.460+02:00,3393.519050291667,-0.4260711669921875,0.89898681640625,0.19287109375
2024-06-20T17:22:13.461+02:00,3393.529108291667,-0.441162109375,0.9322967529296875,0.183074951171875
2024-06-20T17:22:13.461+02:00,3393.539166291667,-0.4606781005859375,0.9438018798828125,0.1548614501953125
2024-06-20T17:22:13.461+02:00,3393.549223291667,-0.469390869140625,0.9337615966796875,0.1175689697265625
2024-06-20T17:22:13.461+02:00,3393.559281291667,-0.4630584716796875,0.9156494140625,0.0893096923828125
2024-06-20T17:22:13.462+02:00,3393.569338291667,-0.4411773681640625,0.887969970703125,0.0643463134765625
2024-06-20T17:22:13.462+02:00,3393.579396291667,-0.4161224365234375,0.8599395751953125,0.0430908203125
2024-06-20T17:22:13.462+02:00,3393.589453291667,-0.39154052734375,0.832489013671875,0.0263214111328125
2024-06-20T17:22:13.462+02:00,3393.599511291667,-0.3700714111328125,0.8224945068359375,0.0281982421875
2024-06-20T17:22:13.463+02:00,3393.609569291667,-0.35711669921875,0.831085205078125,0.040740966796875
2024-06-20T17:22:13.463+02:00,3393.619626291667,-0.3556671142578125,0.8616485595703125,0.050445556640625
2024-06-20T17:22:13.463+02:00,3393.629684291667,-0.3572998046875,0.9096221923828125,0.070343017578125
2024-06-20T17:22:13.463+02:00,3393.639741291667,-0.3702545166015625,0.968292236328125,0.08892822265625
2024-06-20T17:22:13.464+02:00,3393.649799291667,-0.3913726806640625,1.0101318359375,0.0814208984375
2024-06-20T17:22:13.464+02:00,3393.659857291667,-0.4072723388671875,1.05120849609375,0.05401611328125
2024-06-20T17:22:13.464+02:00,3393.669914291667,-0.4130706787109375,1.08349609375,0.0316925048828125
2024-06-20T17:22:13.464+02:00,3393.679972291667,-0.407318115234375,1.11004638671875,0.0255279541015625
2024-06-20T17:22:13.465+02:00,3393.690029291667,-0.396575927734375,1.103500366210938,0.01898193359375
2024-06-20T17:22:13.465+02:00,3393.700087291667,-0.3979339599609375,1.080657958984375,0.0140838623046875
2024-06-20T17:22:13.465+02:00,3393.710144291667,-0.404510498046875,1.053543090820312,0.0186614990234375
2024-06-20T17:22:13.465+02:00,3393.720202291667,-0.40997314453125,1.015762329101562,0.028228759765625
2024-06-20T17:22:13.466+02:00,3393.730260291667,-0.404571533203125,0.9696044921875,0.039825439453125
2024-06-20T17:22:13.466+02:00,3393.740317291667,-0.38922119140625,0.9250335693359375,0.0519561767578125
2024-06-20T17:22:13.466+02:00,3393.750375291667,-0.3698272705078125,0.8894805908203125,0.0672760009765625
2024-06-20T17:22:13.467+02:00,3393.760432291667,-0.3500213623046875,0.868560791015625,0.075836181640625
2024-06-20T17:22:13.467+02:00,3393.770490291667,-0.3313751220703125,0.8606109619140625,0.0880584716796875
2024-06-20T17:22:13.467+02:00,3393.780548291667,-0.31378173828125,0.87103271484375,0.101318359375
2024-06-20T17:22:13.467+02:00,3393.790605291667,-0.3051300048828125,0.897552490234375,0.1165771484375
2024-06-20T17:22:13.468+02:00,3393.800663291667,-0.308807373046875,0.93963623046875,0.137786865234375
2024-06-20T17:22:13.468+02:00,3393.810720291667,-0.3216705322265625,0.9734344482421875,0.1543426513671875
2024-06-20T17:22:13.468+02:00,3393.820778291667,-0.338958740234375,0.984100341796875,0.1528167724609375
2024-06-20T17:22:13.468+02:00,3393.830835291667,-0.3574981689453125,0.97174072265625,0.135894775390625
2024-06-20T17:22:13.468+02:00,3393.840893291667,-0.3609619140625,0.948822021484375,0.1233367919921875
2024-06-20T17:22:13.469+02:00,3393.850951291667,-0.3518829345703125,0.932586669921875,0.130615234375
2024-06-20T17:22:13.469+02:00,3393.861008291667,-0.341766357421875,0.9076690673828125,0.1425018310546875
2024-06-20T17:22:13.469+02:00,3393.871066291667,-0.3473968505859375,0.87542724609375,0.14678955078125
2024-06-20T17:22:13.469+02:00,3393.881123291667,-0.3589324951171875,0.859344482421875,0.1552276611328125
2024-06-20T17:22:13.469+02:00,3393.891181291667,-0.36431884765625,0.855438232421875,0.1561737060546875
2024-06-20T17:22:13.470+02:00,3393.901239291667,-0.3624114990234375,0.85546875,0.1585235595703125
2024-06-20T17:22:13.470+02:00,3393.911296291667,-0.351104736328125,0.8676605224609375,0.165618896484375
2024-06-20T17:22:13.470+02:00,3393.921354291667,-0.3434906005859375,0.8897247314453125,0.1673431396484375
2024-06-20T17:22:13.470+02:00,3393.931411125,-0.3304290771484375,0.90264892578125,0.165130615234375
2024-06-20T17:22:13.471+02:00,3393.941469125,-0.320220947265625,0.9079742431640625,0.1617279052734375
2024-06-20T17:22:13.471+02:00,3393.951526125,-0.3114776611328125,0.909637451171875,0.163726806640625
2024-06-20T17:22:13.471+02:00,3393.961584125,-0.3034820556640625,0.9209442138671875,0.1733245849609375
2024-06-20T17:22:13.471+02:00,3393.971642125,-0.300384521484375,0.930267333984375,0.1879119873046875
2024-06-20T17:22:13.471+02:00,3393.981699125,-0.2937164306640625,0.94921875,0.202789306640625
2024-06-20T17:22:13.472+02:00,3393.991757125,-0.292266845703125,0.960113525390625,0.216796875
2024-06-20T17:22:13.472+02:00,3394.001814125,-0.2926788330078125,0.9610137939453125,0.23388671875
2024-06-20T17:22:13.472+02:00,3394.011872125,-0.29150390625,0.9632720947265625,0.2489166259765625
2024-06-20T17:22:13.472+02:00,3394.021929125,-0.29248046875,0.9732666015625,0.2661590576171875
2024-06-20T17:22:13.473+02:00,3394.031987125,-0.297607421875,0.98907470703125,0.2744293212890625
2024-06-20T17:22:13.473+02:00,3394.042045125,-0.3077545166015625,0.995880126953125,0.2734527587890625
2024-06-20T17:22:13.473+02:00,3394.052102125,-0.3144989013671875,0.995330810546875,0.266448974609375
2024-06-20T17:22:13.473+02:00,3394.062160125,-0.3144683837890625,0.9791259765625,0.246917724609375
2024-06-20T17:22:13.474+02:00,3394.072217125,-0.3029632568359375,0.95660400390625,0.233673095703125
2024-06-20T17:22:13.474+02:00,3394.082275125,-0.28533935546875,0.9356231689453125,0.2319488525390625
2024-06-20T17:22:13.474+02:00,3394.092333125,-0.2715911865234375,0.9110870361328125,0.2339324951171875
2024-06-20T17:22:13.474+02:00,3394.102390125,-0.2672271728515625,0.90216064453125,0.2483673095703125
2024-06-20T17:22:13.474+02:00,3394.112448125,-0.267242431640625,0.9055328369140625,0.27679443359375
2024-06-20T17:22:13.475+02:00,3394.122505125,-0.275482177734375,0.9234161376953125,0.3149566650390625
2024-06-20T17:22:13.475+02:00,3394.132563125,-0.280303955078125,0.96099853515625,0.3595733642578125
2024-06-20T17:22:13.475+02:00,3394.142621125,-0.2907257080078125,0.98492431640625,0.3741912841796875
2024-06-20T17:22:13.475+02:00,3394.152678125,-0.3027191162109375,0.9913177490234375,0.341552734375
2024-06-20T17:22:13.476+02:00,3394.162736125,-0.29376220703125,0.9849395751953125,0.29608154296875
2024-06-20T17:22:13.476+02:00,3394.172793125,-0.27618408203125,0.9352569580078125,0.2515869140625
2024-06-20T17:22:13.476+02:00,3394.182851125,-0.2486572265625,0.9081268310546875,0.2435150146484375
2024-06-20T17:22:13.476+02:00,3394.192908125,-0.2341156005859375,0.9076385498046875,0.243804931640625
2024-06-20T17:22:13.477+02:00,3394.202966125,-0.2486114501953125,0.8848724365234375,0.2177581787109375
2024-06-20T17:22:13.477+02:00,3394.213024125,-0.259246826171875,0.853668212890625,0.195098876953125
2024-06-20T17:22:13.477+02:00,3394.223081125,-0.25213623046875,0.8464202880859375,0.1855926513671875
2024-06-20T17:22:13.477+02:00,3394.233139125,-0.2445831298828125,0.8457183837890625,0.1708221435546875
2024-06-20T17:22:13.477+02:00,3394.243196125,-0.2422637939453125,0.8433837890625,0.1461029052734375
2024-06-20T17:22:13.478+02:00,3394.253254125,-0.23724365234375,0.844940185546875,0.123870849609375
2024-06-20T17:22:13.478+02:00,3394.263312125,-0.2306976318359375,0.8827362060546875,0.1084442138671875
2024-06-20T17:22:13.478+02:00,3394.273369125,-0.2315521240234375,0.9251861572265625,0.0848846435546875
2024-06-20T17:22:13.478+02:00,3394.283427125,-0.23199462890625,0.9577484130859375,0.0651702880859375
2024-06-20T17:22:13.479+02:00,3394.293484125,-0.22625732421875,0.9854888916015625,0.0511016845703125
2024-06-20T17:22:13.479+02:00,3394.303542125,-0.1917724609375,1.114227294921875,0.0900726318359375
2024-06-20T17:22:13.479+02:00,3394.313599125,-0.1962738037109375,1.206207275390625,0.1283111572265625
2024-06-20T17:22:13.479+02:00,3394.323657125,-0.2176513671875,1.109359741210938,0.130767822265625
2024-06-20T17:22:13.479+02:00,3394.333715125,-0.195343017578125,1.003768920898438,0.1238555908203125
2024-06-20T17:22:13.480+02:00,3394.343772125,-0.1748046875,0.972564697265625,0.161651611328125
2024-06-20T17:22:13.480+02:00,3394.353830125,-0.1823577880859375,0.9163970947265625,0.150909423828125
2024-06-20T17:22:13.480+02:00,3394.363887125,-0.183502197265625,0.9115142822265625,0.167449951171875
2024-06-20T17:22:13.480+02:00,3394.373945125,-0.1768646240234375,0.9254608154296875,0.1727142333984375
2024-06-20T17:22:13.481+02:00,3394.384003125,-0.1680145263671875,0.9637298583984375,0.1884918212890625
2024-06-20T17:22:13.481+02:00,3394.394060125,-0.16180419921875,1.010421752929688,0.198333740234375
2024-06-20T17:22:13.482+02:00,3394.404118125,-0.1658782958984375,1.04327392578125,0.201629638671875
2024-06-20T17:22:13.482+02:00,3394.414175125,-0.1822967529296875,1.047225952148438,0.2001190185546875
2024-06-20T17:22:13.482+02:00,3394.424233125,-0.186798095703125,1.058242797851562,0.222930908203125
2024-06-20T17:22:13.482+02:00,3394.434290125,-0.1925506591796875,1.056411743164062,0.191253662109375
2024-06-20T17:22:13.483+02:00,3394.444348125,-0.2345428466796875,1.001083374023438,0.0931243896484375
2024-06-20T17:22:13.483+02:00,3394.454406125,-0.271575927734375,0.9637451171875,0.0830230712890625
2024-06-20T17:22:13.483+02:00,3394.464463125,-0.259063720703125,1.002151489257812,0.1129608154296875
2024-06-20T17:22:13.483+02:00,3394.474521125,-0.237335205078125,1.03936767578125,0.082855224609375
2024-06-20T17:22:13.484+02:00,3394.484578125,-0.23260498046875,0.990692138671875,0.0601806640625
2024-06-20T17:22:13.484+02:00,3394.494636125,-0.2429962158203125,0.936859130859375,0.0625457763671875
2024-06-20T17:22:13.484+02:00,3394.504693125,-0.2650604248046875,0.9307708740234375,0.0535125732421875
2024-06-20T17:22:13.484+02:00,3394.514751125,-0.293182373046875,0.9270172119140625,0.0131072998046875
2024-06-20T17:22:13.485+02:00,3394.524809125,-0.3050994873046875,0.9306182861328125,-0.0562744140625
2024-06-20T17:22:13.485+02:00,3394.534866125,-0.3039398193359375,0.92181396484375,-0.14910888671875
2024-06-20T17:22:13.485+02:00,3394.544924125,-0.3122711181640625,0.8766632080078125,-0.258056640625
2024-06-20T17:22:13.485+02:00,3394.554981125,-0.3161773681640625,0.809661865234375,-0.3431549072265625
2024-06-20T17:22:13.485+02:00,3394.565039125,-0.3266143798828125,0.74517822265625,-0.420806884765625
2024-06-20T17:22:13.486+02:00,3394.575097125,-0.3135528564453125,0.616455078125,-0.4536285400390625
2024-06-20T17:22:13.486+02:00,3394.585154125,-0.2928924560546875,0.5503692626953125,-0.365264892578125
2024-06-20T17:22:13.486+02:00,3394.595212125,-0.302490234375,0.521087646484375,-0.2189483642578125
2024-06-20T17:22:13.486+02:00,3394.605269125,-0.346923828125,0.503082275390625,-0.1566009521484375
2024-06-20T17:22:13.486+02:00,3394.615327125,-0.392303466796875,0.60198974609375,-0.110992431640625
2024-06-20T17:22:13.487+02:00,3394.625385125,-0.4091796875,0.883819580078125,-0.0325469970703125
2024-06-20T17:22:13.487+02:00,3394.635442125,-0.4311981201171875,1.16796875,0.0439910888671875
2024-06-20T17:22:13.487+02:00,3394.645500125,-0.47479248046875,1.343795776367188,0.0894775390625
2024-06-20T17:22:13.487+02:00,3394.655557125,-0.5203704833984375,1.418548583984375,0.117584228515625
2024-06-20T17:22:13.487+02:00,3394.665615125,-0.5497894287109375,1.2501220703125,0.075927734375
2024-06-20T17:22:13.488+02:00,3394.675672125,-0.5274200439453125,1.029830932617188,0.081756591796875
2024-06-20T17:22:13.488+02:00,3394.685730125,-0.4847564697265625,0.9166259765625,0.0936126708984375
2024-06-20T17:22:13.488+02:00,3394.695788125,-0.430877685546875,0.870941162109375,0.0674285888671875
2024-06-20T17:22:13.488+02:00,3394.705845125,-0.364044189453125,0.840423583984375,0.0066070556640625
2024-06-20T17:22:13.489+02:00,3394.715903125,-0.3127593994140625,0.8692626953125,-0.0113067626953125
2024-06-20T17:22:13.489+02:00,3394.725960125,-0.301239013671875,0.9051971435546875,0.001739501953125
2024-06-20T17:22:13.489+02:00,3394.736018125,-0.30609130859375,0.92938232421875,0.0324249267578125
2024-06-20T17:22:13.489+02:00,3394.746076125,-0.307098388671875,0.968353271484375,0.05206298828125
2024-06-20T17:22:13.490+02:00,3394.756133125,-0.289520263671875,1.01904296875,0.0675201416015625
2024-06-20T17:22:13.490+02:00,3394.766191125,-0.258270263671875,1.096145629882812,0.0938873291015625
2024-06-20T17:22:13.490+02:00,3394.776248125,-0.228729248046875,1.1314697265625,0.093109130859375
2024-06-20T17:22:13.490+02:00,3394.786306125,-0.2135162353515625,1.10784912109375,0.084228515625
2024-06-20T17:22:13.491+02:00,3394.796363125,-0.206634521484375,1.062515258789062,0.1052398681640625
2024-06-20T17:22:13.491+02:00,3394.806421125,-0.20794677734375,0.975982666015625,0.13751220703125
2024-06-20T17:22:13.491+02:00,3394.816479125,-0.209503173828125,0.8976898193359375,0.18524169921875
2024-06-20T17:22:13.491+02:00,3394.826536125,-0.2249298095703125,0.8397979736328125,0.1954498291015625
2024-06-20T17:22:13.491+02:00,3394.836594125,-0.236663818359375,0.7826385498046875,0.2196197509765625
2024-06-20T17:22:13.492+02:00,3394.846651125,-0.2449798583984375,0.7979583740234375,0.2876129150390625
2024-06-20T17:22:13.492+02:00,3394.856709125,-0.269744873046875,0.8636474609375,0.3338775634765625
2024-06-20T17:22:13.492+02:00,3394.866767125,-0.2921905517578125,0.9256744384765625,0.3654632568359375
2024-06-20T17:22:13.492+02:00,3394.876824125,-0.3095855712890625,0.9132232666015625,0.3330841064453125
2024-06-20T17:22:13.492+02:00,3394.886882125,-0.31634521484375,0.88531494140625,0.31494140625
2024-06-20T17:22:13.493+02:00,3394.896939125,-0.3167266845703125,0.8805389404296875,0.3377532958984375
2024-06-20T17:22:13.493+02:00,3394.906997125,-0.3290557861328125,0.8875274658203125,0.35296630859375
2024-06-20T17:22:13.493+02:00,3394.917054125,-0.344512939453125,0.883453369140625,0.3416748046875
2024-06-20T17:22:13.493+02:00,3394.92711225,-0.34844970703125,0.87884521484375,0.318328857421875
2024-06-20T17:22:13.494+02:00,3394.93717025,-0.34039306640625,0.9022979736328125,0.3302459716796875
2024-06-20T17:22:13.494+02:00,3394.94722725,-0.341583251953125,0.9271087646484375,0.3645782470703125
2024-06-20T17:22:13.494+02:00,3394.95728525,-0.3541412353515625,0.9323883056640625,0.3960418701171875
2024-06-20T17:22:13.494+02:00,3394.96734225,-0.3720245361328125,0.930999755859375,0.408599853515625
2024-06-20T17:22:13.495+02:00,3394.97740025,-0.3777923583984375,0.9423065185546875,0.40362548828125
2024-06-20T17:22:13.495+02:00,3394.98745825,-0.363494873046875,0.9623260498046875,0.3994140625
2024-06-20T17:22:13.495+02:00,3394.99751525,-0.3461456298828125,0.9584808349609375,0.3980865478515625
2024-06-20T17:22:13.495+02:00,3395.00757325,-0.3289947509765625,0.94793701171875,0.3971405029296875
2024-06-20T17:22:13.495+02:00,3395.01763025,-0.3266143798828125,0.938385009765625,0.395416259765625
2024-06-20T17:22:13.496+02:00,3395.02768825,-0.3260498046875,0.906524658203125,0.389251708984375
2024-06-20T17:22:13.496+02:00,3395.03774525,-0.3312835693359375,0.903900146484375,0.3968353271484375
2024-06-20T17:22:13.496+02:00,3395.04780325,-0.3410797119140625,0.8906402587890625,0.384002685546875
2024-06-20T17:22:13.496+02:00,3395.05786125,-0.3502655029296875,0.8695526123046875,0.3645172119140625
2024-06-20T17:22:13.496+02:00,3395.06791825,-0.34832763671875,0.8585968017578125,0.3608856201171875
2024-06-20T17:22:13.497+02:00,3395.07797625,-0.3459320068359375,0.859100341796875,0.365020751953125
2024-06-20T17:22:13.497+02:00,3395.08803325,-0.3491973876953125,0.847808837890625,0.337554931640625
2024-06-20T17:22:13.497+02:00,3395.09809125,-0.3323822021484375,0.828369140625,0.2958984375
2024-06-20T17:22:13.497+02:00,3395.10814925,-0.2972412109375,0.8432769775390625,0.29388427734375
2024-06-20T17:22:13.497+02:00,3395.11820625,-0.2711944580078125,0.8488922119140625,0.2881622314453125
2024-06-20T17:22:13.498+02:00,3395.12826425,-0.2616119384765625,0.84893798828125,0.28131103515625
2024-06-20T17:22:13.498+02:00,3395.13832125,-0.26385498046875,0.8567047119140625,0.2708587646484375
2024-06-20T17:22:13.498+02:00,3395.14837925,-0.2635498046875,0.8791046142578125,0.277130126953125
2024-06-20T17:22:13.499+02:00,3395.15843725,-0.261627197265625,0.9042205810546875,0.2752227783203125
2024-06-20T17:22:13.499+02:00,3395.16849425,-0.2670745849609375,0.9152374267578125,0.257904052734375
2024-06-20T17:22:13.499+02:00,3395.17855225,-0.2720184326171875,0.9273681640625,0.243316650390625
2024-06-20T17:22:13.499+02:00,3395.18860925,-0.2751312255859375,0.9504241943359375,0.2348175048828125
2024-06-20T17:22:13.500+02:00,3395.19866725,-0.27978515625,0.954498291015625,0.2205047607421875
2024-06-20T17:22:13.500+02:00,3395.20872425,-0.2816619873046875,0.9392242431640625,0.1989593505859375
2024-06-20T17:22:13.500+02:00,3395.21878225,-0.276031494140625,0.9253387451171875,0.1964111328125
2024-06-20T17:22:13.500+02:00,3395.22884025,-0.27081298828125,0.9166107177734375,0.190887451171875
2024-06-20T17:22:13.501+02:00,3395.23889725,-0.264434814453125,0.9115753173828125,0.1761322021484375
2024-06-20T17:22:13.501+02:00,3395.24895525,-0.256744384765625,0.90631103515625,0.16143798828125
2024-06-20T17:22:13.501+02:00,3395.25901225,-0.2394561767578125,0.907684326171875,0.153778076171875
2024-06-20T17:22:13.501+02:00,3395.26907025,-0.222747802734375,0.9188995361328125,0.1499176025390625
2024-06-20T17:22:13.501+02:00,3395.27912825,-0.2095794677734375,0.91864013671875,0.1396026611328125
2024-06-20T17:22:13.502+02:00,3395.28918525,-0.1991729736328125,0.92767333984375,0.138519287109375
2024-06-20T17:22:13.502+02:00,3395.29924325,-0.1905517578125,0.938385009765625,0.1401519775390625
2024-06-20T17:22:13.502+02:00,3395.30930025,-0.1837615966796875,0.9531707763671875,0.130096435546875
2024-06-20T17:22:13.502+02:00,3395.31935825,-0.18408203125,0.97607421875,0.1052703857421875
2024-06-20T17:22:13.502+02:00,3395.32941525,-0.180328369140625,1.004257202148438,0.0608673095703125
2024-06-20T17:22:13.503+02:00,3395.33947325,-0.1621246337890625,1.02667236328125,0.017364501953125
2024-06-20T17:22:13.503+02:00,3395.34953125,-0.147003173828125,1.048095703125,-0.010040283203125
2024-06-20T17:22:13.503+02:00,3395.35958825,-0.148529052734375,1.079208374023438,-0.0287933349609375
2024-06-20T17:22:13.503+02:00,3395.36964625,-0.15045166015625,1.108993530273438,-0.0399627685546875
2024-06-20T17:22:13.504+02:00,3395.37970325,-0.152923583984375,1.124984741210938,-0.0553741455078125
2024-06-20T17:22:13.504+02:00,3395.38976125,-0.15704345703125,1.120025634765625,-0.058319091796875
2024-06-20T17:22:13.504+02:00,3395.39981925,-0.1681671142578125,1.105010986328125,-0.041534423828125
2024-06-20T17:22:13.504+02:00,3395.40987625,-0.1914520263671875,1.087005615234375,-0.013458251953125
2024-06-20T17:22:13.504+02:00,3395.41993425,-0.216888427734375,1.058242797851562,0.005584716796875
2024-06-20T17:22:13.505+02:00,3395.42999125,-0.235626220703125,1.02239990234375,0.01971435546875
2024-06-20T17:22:13.505+02:00,3395.44004925,-0.2403106689453125,0.972381591796875,0.015625
2024-06-20T17:22:13.505+02:00,3395.45010625,-0.2357177734375,0.9310760498046875,0.0038909912109375
2024-06-20T17:22:13.506+02:00,3395.46016425,-0.2246856689453125,0.902252197265625,-0.01092529296875
2024-06-20T17:22:13.506+02:00,3395.47022225,-0.2184295654296875,0.8950042724609375,-0.0252838134765625
2024-06-20T17:22:13.506+02:00,3395.48027925,-0.2242279052734375,0.9048004150390625,-0.0354766845703125
2024-06-20T17:22:13.506+02:00,3395.49033725,-0.23394775390625,0.913055419921875,-0.0368194580078125
2024-06-20T17:22:13.506+02:00,3395.50039425,-0.2422637939453125,0.9209136962890625,-0.03082275390625
2024-06-20T17:22:13.507+02:00,3395.51045225,-0.25494384765625,0.938995361328125,-0.0273895263671875
2024-06-20T17:22:13.507+02:00,3395.52051025,-0.2685394287109375,0.955810546875,-0.020538330078125
2024-06-20T17:22:13.507+02:00,3395.53056725,-0.2862548828125,0.972686767578125,-0.0086822509765625
2024-06-20T17:22:13.507+02:00,3395.54062525,-0.2996826171875,0.9893646240234375,6.103515625e-05
2024-06-20T17:22:13.508+02:00,3395.55068225,-0.314178466796875,1.00640869140625,0.006683349609375
2024-06-20T17:22:13.508+02:00,3395.56074025,-0.331024169921875,1.025955200195312,0.0115509033203125
2024-06-20T17:22:13.508+02:00,3395.57079825,-0.3536376953125,1.047943115234375,0.007965087890625
2024-06-20T17:22:13.508+02:00,3395.58085525,-0.382110595703125,1.05035400390625,0.00640869140625
2024-06-20T17:22:13.509+02:00,3395.59091325,-0.410247802734375,1.0360107421875,0.003753662109375
2024-06-20T17:22:13.509+02:00,3395.60097025,-0.43017578125,1.010726928710938,0.0055084228515625
2024-06-20T17:22:13.509+02:00,3395.61102825,-0.4390106201171875,0.9642333984375,0.0003509521484375
2024-06-20T17:22:13.509+02:00,3395.62108625,-0.4364013671875,0.91156005859375,-0.0102996826171875
2024-06-20T17:22:13.509+02:00,3395.63114325,-0.4132080078125,0.8653411865234375,-0.022369384765625
2024-06-20T17:22:13.510+02:00,3395.64120125,-0.380340576171875,0.8262786865234375,-0.0348968505859375
2024-06-20T17:22:13.510+02:00,3395.65125825,-0.35693359375,0.7974700927734375,-0.042449951171875
2024-06-20T17:22:13.510+02:00,3395.66131625,-0.357086181640625,0.7840728759765625,-0.0505828857421875
2024-06-20T17:22:13.510+02:00,3395.67137325,-0.37469482421875,0.7917022705078125,-0.0506744384765625
2024-06-20T17:22:13.510+02:00,3395.68143125,-0.3993988037109375,0.8091583251953125,-0.0481109619140625
2024-06-20T17:22:13.511+02:00,3395.69148925,-0.427276611328125,0.8269500732421875,-0.053985595703125
2024-06-20T17:22:13.511+02:00,3395.70154625,-0.4464569091796875,0.8558349609375,-0.0457763671875
2024-06-20T17:22:13.511+02:00,3395.71160425,-0.4600067138671875,0.8936004638671875,-0.04254150390625
2024-06-20T17:22:13.511+02:00,3395.72166125,-0.4760284423828125,0.9148406982421875,-0.0468597412109375
2024-06-20T17:22:13.512+02:00,3395.73171925,-0.4933624267578125,0.9287567138671875,-0.052978515625
2024-06-20T17:22:13.512+02:00,3395.74177725,-0.5020599365234375,0.9294281005859375,-0.0558929443359375
2024-06-20T17:22:13.512+02:00,3395.75183425,-0.5023193359375,0.918304443359375,-0.05743408203125
2024-06-20T17:22:13.512+02:00,3395.76189225,-0.4891204833984375,0.8946380615234375,-0.061492919921875
2024-06-20T17:22:13.512+02:00,3395.77194925,-0.462799072265625,0.8591156005859375,-0.0622711181640625
2024-06-20T17:22:13.513+02:00,3395.78200725,-0.434783935546875,0.83135986328125,-0.061614990234375
2024-06-20T17:22:13.513+02:00,3395.79206425,-0.413543701171875,0.8169708251953125,-0.0655670166015625
2024-06-20T17:22:13.513+02:00,3395.80212225,-0.3971710205078125,0.805511474609375,-0.0702362060546875
2024-06-20T17:22:13.513+02:00,3395.81218025,-0.378570556640625,0.815704345703125,-0.07513427734375
2024-06-20T17:22:13.514+02:00,3395.82223725,-0.3724365234375,0.840240478515625,-0.072998046875
2024-06-20T17:22:13.514+02:00,3395.83229525,-0.3808746337890625,0.8677978515625,-0.0759735107421875
2024-06-20T17:22:13.514+02:00,3395.84235225,-0.3893585205078125,0.8921661376953125,-0.0684967041015625
2024-06-20T17:22:13.514+02:00,3395.85241025,-0.3882293701171875,0.917816162109375,-0.0557403564453125
2024-06-20T17:22:13.514+02:00,3395.86246825,-0.3805084228515625,0.944061279296875,-0.038848876953125
2024-06-20T17:22:13.515+02:00,3395.87252525,-0.3719329833984375,0.950469970703125,-0.0337066650390625
2024-06-20T17:22:13.515+02:00,3395.88258325,-0.3542633056640625,0.9427947998046875,-0.02587890625
2024-06-20T17:22:13.515+02:00,3395.89264025,-0.3285064697265625,0.9443359375,-0.00750732421875
2024-06-20T17:22:13.516+02:00,3395.90269825,-0.3066864013671875,0.9488983154296875,0.0129852294921875
2024-06-20T17:22:13.516+02:00,3395.91275625,-0.299713134765625,0.9652557373046875,0.023406982421875
2024-06-20T17:22:13.516+02:00,3395.92281325,-0.30523681640625,0.98541259765625,0.01202392578125
2024-06-20T17:22:13.516+02:00,3395.932871541667,-0.2932891845703125,1.012710571289062,0.010528564453125
2024-06-20T17:22:13.517+02:00,3395.942928541667,-0.26727294921875,1.054946899414062,0.0323638916015625
2024-06-20T17:22:13.517+02:00,3395.952986541667,-0.253082275390625,1.092300415039062,0.0719757080078125
2024-06-20T17:22:13.517+02:00,3395.963043541667,-0.2564239501953125,1.1068115234375,0.0988006591796875
2024-06-20T17:22:13.517+02:00,3395.973101541667,-0.28082275390625,1.119476318359375,0.1173858642578125
2024-06-20T17:22:13.517+02:00,3395.983159541667,-0.3011932373046875,1.133499145507812,0.1219329833984375
2024-06-20T17:22:13.518+02:00,3395.993216541667,-0.289215087890625,1.145278930664062,0.124420166015625
2024-06-20T17:22:13.518+02:00,3396.003274541667,-0.2506103515625,1.151779174804688,0.135894775390625
2024-06-20T17:22:13.518+02:00,3396.013331541667,-0.2219085693359375,1.133575439453125,0.1425018310546875
2024-06-20T17:22:13.518+02:00,3396.023389541667,-0.214447021484375,1.102325439453125,0.15289306640625
2024-06-20T17:22:13.518+02:00,3396.033447541667,-0.2198638916015625,1.072036743164062,0.1537628173828125
2024-06-20T17:22:13.519+02:00,3396.043504541667,-0.22271728515625,1.051483154296875,0.14874267578125
2024-06-20T17:22:13.519+02:00,3396.053562541667,-0.21484375,1.048309326171875,0.1571502685546875
2024-06-20T17:22:13.519+02:00,3396.063619541667,-0.2052154541015625,1.055221557617188,0.16680908203125
2024-06-20T17:22:13.519+02:00,3396.073677541667,-0.2061309814453125,1.055404663085938,0.172698974609375
2024-06-20T17:22:13.520+02:00,3396.083735541667,-0.21893310546875,1.050445556640625,0.179443359375
2024-06-20T17:22:13.520+02:00,3396.093792541667,-0.228240966796875,1.0499267578125,0.1888885498046875
2024-06-20T17:22:13.520+02:00,3396.103850541667,-0.236572265625,1.043350219726562,0.2083587646484375
2024-06-20T17:22:13.520+02:00,3396.113907541667,-0.2423095703125,1.046310424804688,0.22198486328125
2024-06-20T17:22:13.521+02:00,3396.123965541667,-0.2471160888671875,1.038421630859375,0.22674560546875
2024-06-20T17:22:13.521+02:00,3396.134022541667,-0.2466278076171875,1.02435302734375,0.2295379638671875
2024-06-20T17:22:13.521+02:00,3396.144080541667,-0.2411956787109375,1.017913818359375,0.229400634765625
2024-06-20T17:22:13.521+02:00,3396.154138541667,-0.2342071533203125,1.022308349609375,0.2333526611328125
2024-06-20T17:22:13.521+02:00,3396.164195541667,-0.23291015625,1.030838012695312,0.2366485595703125
2024-06-20T17:22:13.522+02:00,3396.174253541667,-0.2384796142578125,1.046218872070312,0.2403717041015625
2024-06-20T17:22:13.522+02:00,3396.184310541667,-0.249786376953125,1.073532104492188,0.244781494140625
2024-06-20T17:22:13.522+02:00,3396.194368541667,-0.2643890380859375,1.09173583984375,0.247650146484375
2024-06-20T17:22:13.522+02:00,3396.204426541667,-0.27587890625,1.084213256835938,0.25115966796875
2024-06-20T17:22:13.523+02:00,3396.214483541667,-0.278411865234375,1.06695556640625,0.26043701171875
2024-06-20T17:22:13.523+02:00,3396.224541541667,-0.271270751953125,1.032485961914062,0.263946533203125
2024-06-20T17:22:13.523+02:00,3396.234598541667,-0.26123046875,0.9858551025390625,0.257598876953125
2024-06-20T17:22:13.524+02:00,3396.244656541667,-0.24560546875,0.9455718994140625,0.242218017578125
2024-06-20T17:22:13.524+02:00,3396.254714541667,-0.227874755859375,0.908538818359375,0.2236480712890625
2024-06-20T17:22:13.524+02:00,3396.264771541667,-0.211822509765625,0.8803253173828125,0.214996337890625
2024-06-20T17:22:13.524+02:00,3396.274829541667,-0.2017364501953125,0.8715362548828125,0.2108001708984375
2024-06-20T17:22:13.524+02:00,3396.284886541667,-0.1970062255859375,0.87408447265625,0.1989593505859375
2024-06-20T17:22:13.525+02:00,3396.294944541667,-0.1952362060546875,0.8794708251953125,0.203826904296875
2024-06-20T17:22:13.525+02:00,3396.305001541667,-0.198211669921875,0.88873291015625,0.2111358642578125
2024-06-20T17:22:13.525+02:00,3396.315059541667,-0.20159912109375,0.896636962890625,0.21563720703125
2024-06-20T17:22:13.525+02:00,3396.325117541667,-0.199554443359375,0.902435302734375,0.2223052978515625
2024-06-20T17:22:13.525+02:00,3396.335174541667,-0.19805908203125,0.8967742919921875,0.2198638916015625
2024-06-20T17:22:13.526+02:00,3396.345232541667,-0.1976165771484375,0.88616943359375,0.2178955078125
2024-06-20T17:22:13.526+02:00,3396.355289541667,-0.1942291259765625,0.86944580078125,0.217529296875
2024-06-20T17:22:13.526+02:00,3396.365347541667,-0.19207763671875,0.8452606201171875,0.2097320556640625
2024-06-20T17:22:13.526+02:00,3396.375405541667,-0.185455322265625,0.8222503662109375,0.1952667236328125
2024-06-20T17:22:13.526+02:00,3396.385462541667,-0.183685302734375,0.8036651611328125,0.195465087890625
2024-06-20T17:22:13.527+02:00,3396.395520541667,-0.1819915771484375,0.792144775390625,0.2022247314453125
2024-06-20T17:22:13.527+02:00,3396.405577541667,-0.181396484375,0.7799224853515625,0.205078125
2024-06-20T17:22:13.527+02:00,3396.415635541667,-0.1859893798828125,0.79132080078125,0.213409423828125
2024-06-20T17:22:13.527+02:00,3396.425693541667,-0.192718505859375,0.8153533935546875,0.2251434326171875
2024-06-20T17:22:13.528+02:00,3396.435750541667,-0.1995391845703125,0.846588134765625,0.2338714599609375
2024-06-20T17:22:13.528+02:00,3396.445808541667,-0.2129669189453125,0.904449462890625,0.2310333251953125
2024-06-20T17:22:13.528+02:00,3396.455865541667,-0.22845458984375,0.9579620361328125,0.226104736328125
2024-06-20T17:22:13.528+02:00,3396.465923541667,-0.2446746826171875,0.99993896484375,0.236236572265625
2024-06-20T17:22:13.528+02:00,3396.475980541667,-0.2570343017578125,1.023330688476562,0.2049407958984375
2024-06-20T17:22:13.529+02:00,3396.486038541667,-0.2570953369140625,1.005874633789062,0.1417694091796875
2024-06-20T17:22:13.529+02:00,3396.496096541667,-0.239898681640625,1.001480102539062,0.08966064453125
2024-06-20T17:22:13.529+02:00,3396.506153541667,-0.2120208740234375,1.0625,0.1075439453125
2024-06-20T17:22:13.529+02:00,3396.516211541667,-0.2013397216796875,1.121139526367188,0.164764404296875
2024-06-20T17:22:13.529+02:00,3396.526268541667,-0.234405517578125,1.145645141601562,0.168914794921875
2024-06-20T17:22:13.530+02:00,3396.536326541667,-0.28326416015625,1.174697875976562,0.170013427734375
2024-06-20T17:22:13.530+02:00,3396.546384541667,-0.293212890625,1.180465698242188,0.16033935546875
2024-06-20T17:22:13.530+02:00,3396.556441541667,-0.2670135498046875,1.123214721679688,0.1660919189453125
2024-06-20T17:22:13.530+02:00,3396.566499541667,-0.23590087890625,1.0445556640625,0.1864471435546875
2024-06-20T17:22:13.531+02:00,3396.576556541667,-0.20458984375,0.998779296875,0.185302734375
2024-06-20T17:22:13.531+02:00,3396.586614541667,-0.1748504638671875,0.9147491455078125,0.1680145263671875
2024-06-20T17:22:13.531+02:00,3396.596672541667,-0.1539764404296875,0.8275909423828125,0.131561279296875
2024-06-20T17:22:13.531+02:00,3396.606729541667,-0.13372802734375,0.779510498046875,0.0698699951171875
2024-06-20T17:22:13.532+02:00,3396.616787541667,-0.1299591064453125,0.7261199951171875,-0.0437774658203125
2024-06-20T17:22:13.532+02:00,3396.626844541667,-0.1249542236328125,0.6912078857421875,-0.1268768310546875
2024-06-20T17:22:13.532+02:00,3396.636902541667,-0.140106201171875,0.7394561767578125,-0.144805908203125
2024-06-20T17:22:13.532+02:00,3396.646959541667,-0.1804962158203125,0.80584716796875,-0.2254638671875
2024-06-20T17:22:13.533+02:00,3396.657017541667,-0.1948089599609375,1.037979125976562,-0.2098236083984375
2024-06-20T17:22:13.533+02:00,3396.667075541667,-0.190826416015625,1.247161865234375,-0.176788330078125
2024-06-20T17:22:13.533+02:00,3396.677132541667,-0.165771484375,1.27386474609375,-0.2171783447265625
2024-06-20T17:22:13.534+02:00,3396.687190541667,-0.1217193603515625,1.24078369140625,-0.2083740234375
2024-06-20T17:22:13.534+02:00,3396.697247541667,-0.0898284912109375,1.17950439453125,-0.155853271484375
2024-06-20T17:22:13.534+02:00,3396.707305541667,-0.081085205078125,1.1131591796875,-0.1011199951171875
2024-06-20T17:22:13.534+02:00,3396.717363541667,-0.084136962890625,1.04803466796875,-0.0758819580078125
2024-06-20T17:22:13.535+02:00,3396.727420541667,-0.086517333984375,0.9906768798828125,-0.0737152099609375
2024-06-20T17:22:13.535+02:00,3396.737478541667,-0.08343505859375,0.9702301025390625,-0.0735931396484375
2024-06-20T17:22:13.535+02:00,3396.747535541667,-0.082244873046875,1.001815795898438,-0.0874786376953125
2024-06-20T17:22:13.535+02:00,3396.757593541667,-0.078369140625,1.04840087890625,-0.10693359375
2024-06-20T17:22:13.535+02:00,3396.767650541667,-0.062469482421875,1.065872192382812,-0.143798828125
2024-06-20T17:22:13.536+02:00,3396.777708541667,-0.046539306640625,1.056320190429688,-0.2027740478515625
2024-06-20T17:22:13.536+02:00,3396.787766541667,-0.0438385009765625,0.998504638671875,-0.212432861328125
2024-06-20T17:22:13.536+02:00,3396.797823541667,-0.0316162109375,0.899505615234375,-0.2561492919921875
2024-06-20T17:22:13.536+02:00,3396.807881541667,-0.0361480712890625,0.8273468017578125,-0.2738494873046875
2024-06-20T17:22:13.536+02:00,3396.817938541667,-0.052093505859375,0.8076629638671875,-0.3130340576171875
2024-06-20T17:22:13.537+02:00,3396.827996541667,-0.064178466796875,0.860015869140625,-0.320556640625
2024-06-20T17:22:13.537+02:00,3396.838054541667,-0.0600738525390625,0.9852294921875,-0.3134307861328125
2024-06-20T17:22:13.537+02:00,3396.848111541667,-0.0562744140625,1.05816650390625,-0.357635498046875
2024-06-20T17:22:13.537+02:00,3396.858169541667,-0.037200927734375,1.0469970703125,-0.4091949462890625
2024-06-20T17:22:13.538+02:00,3396.868226541667,-0.032012939453125,1.027801513671875,-0.4151763916015625
2024-06-20T17:22:13.538+02:00,3396.878284541667,-0.05072021484375,0.9810333251953125,-0.403106689453125
2024-06-20T17:22:13.538+02:00,3396.888342541667,-0.06787109375,0.90753173828125,-0.412445068359375
2024-06-20T17:22:13.538+02:00,3396.898399541667,-0.06719970703125,0.8621978759765625,-0.4088897705078125
2024-06-20T17:22:13.539+02:00,3396.908457541667,-0.0635223388671875,0.8550872802734375,-0.409149169921875
2024-06-20T17:22:13.539+02:00,3396.918514541667,-0.0680084228515625,0.8711090087890625,-0.428253173828125
2024-06-20T17:22:13.539+02:00,3396.928572625,-0.0804595947265625,0.900360107421875,-0.48016357421875
2024-06-20T17:22:13.539+02:00,3396.938630625,-0.0881805419921875,0.920867919921875,-0.5311431884765625
2024-06-20T17:22:13.540+02:00,3396.948687625,-0.080108642578125,0.934173583984375,-0.5703125
2024-06-20T17:22:13.540+02:00,3396.958745625,-0.0572662353515625,1.027175903320312,-0.493896484375
2024-06-20T17:22:13.540+02:00,3396.968802625,-0.073272705078125,1.024093627929688,-0.49114990234375
2024-06-20T17:22:13.540+02:00,3396.978860625,-0.085479736328125,0.976715087890625,-0.520599365234375
2024-06-20T17:22:13.540+02:00,3396.988917625,-0.097320556640625,0.9196929931640625,-0.543212890625
2024-06-20T17:22:13.541+02:00,3396.998975625,-0.10101318359375,0.83551025390625,-0.57489013671875
2024-06-20T17:22:13.541+02:00,3397.009033625,-0.0986785888671875,0.76995849609375,-0.5936737060546875
2024-06-20T17:22:13.541+02:00,3397.019090625,-0.0959320068359375,0.7780609130859375,-0.6208038330078125
2024-06-20T17:22:13.541+02:00,3397.029148625,-0.081817626953125,0.7997894287109375,-0.625213623046875
2024-06-20T17:22:13.542+02:00,3397.039205625,-0.076995849609375,0.777740478515625,-0.65020751953125
2024-06-20T17:22:13.542+02:00,3397.049263625,-0.0799407958984375,0.758056640625,-0.6749725341796875
2024-06-20T17:22:13.542+02:00,3397.059321625,-0.0865325927734375,0.712371826171875,-0.6752777099609375
2024-06-20T17:22:13.542+02:00,3397.069378625,-0.11260986328125,0.6517181396484375,-0.714385986328125
2024-06-20T17:22:13.542+02:00,3397.079436625,-0.1105804443359375,0.626861572265625,-0.6680145263671875
2024-06-20T17:22:13.543+02:00,3397.089493625,-0.0878448486328125,0.609466552734375,-0.59478759765625
2024-06-20T17:22:13.543+02:00,3397.099551625,-0.06390380859375,0.552001953125,-0.5445556640625
2024-06-20T17:22:13.543+02:00,3397.109609625,-0.0432586669921875,0.475860595703125,-0.538909912109375
2024-06-20T17:22:13.543+02:00,3397.119666625,-0.019134521484375,0.4666900634765625,-0.50726318359375
2024-06-20T17:22:13.544+02:00,3397.129724625,-0.0142364501953125,0.497406005859375,-0.4842071533203125
2024-06-20T17:22:13.544+02:00,3397.139781625,-0.0326080322265625,0.513946533203125,-0.4844512939453125
2024-06-20T17:22:13.544+02:00,3397.149839625,-0.0359649658203125,0.578094482421875,-0.480865478515625
2024-06-20T17:22:13.544+02:00,3397.159897625,0.000152587890625,0.678985595703125,-0.369659423828125
2024-06-20T17:22:13.544+02:00,3397.169954625,0.0320892333984375,0.7646636962890625,-0.3072052001953125
2024-06-20T17:22:13.545+02:00,3397.180012625,0.0309295654296875,0.76849365234375,-0.48565673828125
2024-06-20T17:22:13.545+02:00,3397.190069625,0.0150299072265625,0.814239501953125,-0.747039794921875
2024-06-20T17:22:13.545+02:00,3397.200127625,-0.0055999755859375,1.028671264648438,-0.8998260498046875
2024-06-20T17:22:13.546+02:00,3397.210184625,0.0132598876953125,1.185531616210938,-0.8751068115234375
2024-06-20T17:22:13.546+02:00,3397.220242625,0.0409088134765625,1.086593627929688,-0.90380859375
2024-06-20T17:22:13.546+02:00,3397.230300625,0.037322998046875,0.843414306640625,-0.83599853515625
2024-06-20T17:22:13.546+02:00,3397.240357625,-0.0217437744140625,0.586761474609375,-0.697235107421875
2024-06-20T17:22:13.547+02:00,3397.250415625,-0.0872802734375,0.3619842529296875,-0.38641357421875
2024-06-20T17:22:13.547+02:00,3397.260472625,-0.19525146484375,0.338104248046875,-0.1688995361328125
2024-06-20T17:22:13.547+02:00,3397.270530625,-0.2693634033203125,0.6180419921875,-0.2094573974609375
2024-06-20T17:22:13.547+02:00,3397.280588625,-0.254974365234375,1.159683227539062,-0.345458984375
2024-06-20T17:22:13.548+02:00,3397.290645625,-0.355377197265625,1.427459716796875,-1.022674560546875
2024-06-20T17:22:13.548+02:00,3397.300703625,-0.4277496337890625,1.331466674804688,-1.254241943359375
2024-06-20T17:22:13.548+02:00,3397.310760625,-0.3122711181640625,1.024383544921875,-1.03515625
2024-06-20T17:22:13.548+02:00,3397.320818625,-0.034454345703125,0.8066253662109375,-0.9784088134765625
2024-06-20T17:22:13.549+02:00,3397.330875625,0.128265380859375,0.7647552490234375,-0.659942626953125
2024-06-20T17:22:13.549+02:00,3397.340933625,0.1215362548828125,0.6279144287109375,-0.79534912109375
2024-06-20T17:22:13.549+02:00,3397.350991625,0.02691650390625,0.429595947265625,-1.064193725585938
2024-06-20T17:22:13.549+02:00,3397.361048625,-0.079071044921875,0.3110809326171875,-1.07275390625
2024-06-20T17:22:13.550+02:00,3397.371106625,-0.143463134765625,0.1638641357421875,-0.9551239013671875
2024-06-20T17:22:13.550+02:00,3397.381163625,-0.206695556640625,0.0815582275390625,-0.74072265625
2024-06-20T17:22:13.550+02:00,3397.391221625,-0.1971893310546875,0.1021728515625,-0.5543212890625
2024-06-20T17:22:13.551+02:00,3397.401279625,-0.118560791015625,0.241668701171875,-0.50372314453125
2024-06-20T17:22:13.551+02:00,3397.411336625,-0.0472869873046875,0.5669708251953125,-0.4022369384765625
2024-06-20T17:22:13.551+02:00,3397.421394625,0.0185089111328125,0.9933013916015625,-0.302490234375
2024-06-20T17:22:13.551+02:00,3397.431451625,0.087554931640625,1.230880737304688,-0.212646484375
2024-06-20T17:22:13.551+02:00,3397.441509625,0.14471435546875,1.323944091796875,-0.2028656005859375
2024-06-20T17:22:13.552+02:00,3397.451567625,0.1592559814453125,1.25323486328125,-0.2815093994140625
2024-06-20T17:22:13.552+02:00,3397.461624625,0.15826416015625,0.92169189453125,-0.4347381591796875
2024-06-20T17:22:13.552+02:00,3397.471682625,0.1566619873046875,0.6332550048828125,-0.489044189453125
2024-06-20T17:22:13.552+02:00,3397.481739625,0.1660003662109375,0.7240753173828125,-0.3899688720703125
2024-06-20T17:22:13.552+02:00,3397.491797625,0.2009124755859375,1.218551635742188,-0.399932861328125
2024-06-20T17:22:13.553+02:00,3397.501855625,0.2490234375,1.721145629882812,-0.3746185302734375
2024-06-20T17:22:13.553+02:00,3397.511912625,0.2480621337890625,1.694686889648438,-0.4118804931640625
2024-06-20T17:22:13.553+02:00,3397.521970625,0.170074462890625,1.42315673828125,-0.3938446044921875
2024-06-20T17:22:13.553+02:00,3397.532027625,0.0283355712890625,1.2476806640625,-0.150390625
2024-06-20T17:22:13.554+02:00,3397.542085625,-0.151824951171875,1.087570190429688,-0.23846435546875
2024-06-20T17:22:13.554+02:00,3397.552142625,-0.3592987060546875,0.4239349365234375,-0.538421630859375
2024-06-20T17:22:13.554+02:00,3397.562200625,-0.4292144775390625,-0.1639556884765625,-0.392120361328125
2024-06-20T17:22:13.554+02:00,3397.572258625,-0.502960205078125,-0.4878387451171875,-0.4718017578125
2024-06-20T17:22:13.555+02:00,3397.582315625,-0.567291259765625,-0.13067626953125,-0.7391510009765625
2024-06-20T17:22:13.555+02:00,3397.592373625,-0.471588134765625,0.93438720703125,-0.766754150390625
2024-06-20T17:22:13.555+02:00,3397.602430625,-0.3327178955078125,1.705657958984375,-1.328659057617188
2024-06-20T17:22:13.555+02:00,3397.612488625,0.0386810302734375,1.536376953125,-1.183685302734375
2024-06-20T17:22:13.556+02:00,3397.622546625,0.4376678466796875,1.180816650390625,-0.9280242919921875
2024-06-20T17:22:13.556+02:00,3397.632603625,0.589263916015625,1.02874755859375,-0.5200347900390625
2024-06-20T17:22:13.556+02:00,3397.642661625,0.4800567626953125,0.9005889892578125,0.294769287109375
2024-06-20T17:22:13.556+02:00,3397.652718625,0.36529541015625,0.763275146484375,0.62799072265625
2024-06-20T17:22:13.556+02:00,3397.662776625,0.325408935546875,0.740264892578125,0.72821044921875
2024-06-20T17:22:13.557+02:00,3397.672834625,0.321929931640625,0.7118377685546875,0.717987060546875
2024-06-20T17:22:13.557+02:00,3397.682891625,0.30322265625,0.80914306640625,0.6395263671875
2024-06-20T17:22:13.557+02:00,3397.692949625,0.31292724609375,0.99871826171875,0.3424530029296875
2024-06-20T17:22:13.557+02:00,3397.703006625,0.38641357421875,1.181655883789062,-0.123992919921875
2024-06-20T17:22:13.558+02:00,3397.713064625,0.4749298095703125,1.455307006835938,-0.41168212890625
2024-06-20T17:22:13.558+02:00,3397.723121625,0.4605865478515625,1.661407470703125,-0.5330963134765625
2024-06-20T17:22:13.558+02:00,3397.733179625,0.379364013671875,1.4566650390625,-0.729400634765625
2024-06-20T17:22:13.558+02:00,3397.743237625,0.3096923828125,1.035430908203125,-0.836456298828125
2024-06-20T17:22:13.558+02:00,3397.753294625,0.2794342041015625,0.69720458984375,-0.7444305419921875
2024-06-20T17:22:13.559+02:00,3397.763352625,0.257354736328125,0.588134765625,-0.48760986328125
2024-06-20T17:22:13.559+02:00,3397.773409625,0.2018890380859375,0.582244873046875,-0.2969512939453125
2024-06-20T17:22:13.559+02:00,3397.783467625,0.1227569580078125,0.274322509765625,-0.0742034912109375
2024-06-20T17:22:13.559+02:00,3397.793525625,0.0585784912109375,-0.0571136474609375,0.02386474609375
2024-06-20T17:22:13.559+02:00,3397.803582625,0.0019378662109375,-0.1856689453125,0.031158447265625
2024-06-20T17:22:13.560+02:00,3397.813640625,-0.03497314453125,-0.07611083984375,-0.2494354248046875
2024-06-20T17:22:13.560+02:00,3397.823697625,-0.0806121826171875,0.328704833984375,-0.766510009765625
2024-06-20T17:22:13.560+02:00,3397.833755625,-0.08807373046875,1.105621337890625,-1.106948852539062
2024-06-20T17:22:13.560+02:00,3397.843813625,-0.1604766845703125,1.923370361328125,-1.05535888671875
2024-06-20T17:22:13.560+02:00,3397.853870625,-0.356353759765625,1.912429809570312,-0.910858154296875
2024-06-20T17:22:13.561+02:00,3397.863928625,-0.3130035400390625,1.193069458007812,-0.5225982666015625
2024-06-20T17:22:13.561+02:00,3397.873985625,-0.1434326171875,0.8013153076171875,0.2338104248046875
2024-06-20T17:22:13.561+02:00,3397.884043625,0.0487823486328125,1.283584594726562,0.821990966796875
2024-06-20T17:22:13.561+02:00,3397.894101625,0.1883087158203125,1.577117919921875,0.75994873046875
2024-06-20T17:22:13.562+02:00,3397.904158625,0.188751220703125,1.768600463867188,0.3007965087890625
2024-06-20T17:22:13.562+02:00,3397.914216625,0.093841552734375,1.678741455078125,-0.5927886962890625
2024-06-20T17:22:13.562+02:00,3397.924273625,0.1970062255859375,0.9691619873046875,-0.7032470703125
2024-06-20T17:22:13.562+02:00,3397.93433125,0.413177490234375,0.7186126708984375,-0.5377655029296875
2024-06-20T17:22:13.562+02:00,3397.94438825,0.5544281005859375,0.6404266357421875,-0.2184906005859375
2024-06-20T17:22:13.563+02:00,3397.95444625,0.5005340576171875,0.76263427734375,-0.1092681884765625
2024-06-20T17:22:13.563+02:00,3397.96450425,0.239044189453125,0.733245849609375,-0.1959991455078125
2024-06-20T17:22:13.563+02:00,3397.97456125,0.0586700439453125,0.873016357421875,-0.350677490234375
2024-06-20T17:22:13.563+02:00,3397.98461925,0.09991455078125,1.18359375,-0.4115753173828125
2024-06-20T17:22:13.564+02:00,3397.99467625,0.24969482421875,1.393966674804688,-0.4722900390625
2024-06-20T17:22:13.564+02:00,3398.00473425,0.367095947265625,1.391937255859375,-0.4393310546875
2024-06-20T17:22:13.564+02:00,3398.01479225,0.4106597900390625,1.148757934570312,-0.3098907470703125
2024-06-20T17:22:13.564+02:00,3398.02484925,0.3667144775390625,0.76129150390625,-0.2545623779296875
2024-06-20T17:22:13.564+02:00,3398.03490725,0.2857666015625,0.402618408203125,-0.2823333740234375
2024-06-20T17:22:13.565+02:00,3398.04496425,0.19647216796875,0.1901092529296875,-0.23883056640625
2024-06-20T17:22:13.565+02:00,3398.05502225,0.119049072265625,0.15899658203125,-0.2009124755859375
2024-06-20T17:22:13.565+02:00,3398.06508025,0.09051513671875,0.2080078125,-0.23974609375
2024-06-20T17:22:13.566+02:00,3398.07513725,0.0376129150390625,0.313873291015625,-0.3206787109375
2024-06-20T17:22:13.566+02:00,3398.08519525,-0.0221405029296875,0.4845123291015625,-0.7554779052734375
2024-06-20T17:22:13.566+02:00,3398.09525225,-0.10394287109375,0.7392578125,-1.067733764648438
2024-06-20T17:22:13.566+02:00,3398.10531025,-0.227630615234375,1.109527587890625,-1.156890869140625
2024-06-20T17:22:13.566+02:00,3398.11536825,-0.286529541015625,1.357315063476562,-0.809478759765625
2024-06-20T17:22:13.567+02:00,3398.12542525,-0.25628662109375,1.157562255859375,0.0550537109375
2024-06-20T17:22:13.567+02:00,3398.13548325,-0.123321533203125,0.548675537109375,1.095062255859375
2024-06-20T17:22:13.567+02:00,3398.14554025,0.045654296875,0.9167022705078125,1.47509765625
2024-06-20T17:22:13.567+02:00,3398.15559825,0.291900634765625,2.419662475585938,0.3557891845703125
2024-06-20T17:22:13.567+02:00,3398.16565525,0.1956939697265625,2.359237670898438,-1.0738525390625
2024-06-20T17:22:13.568+02:00,3398.17571325,-0.0107879638671875,1.665802001953125,-1.391494750976562
2024-06-20T17:22:13.568+02:00,3398.18577125,0.1473846435546875,0.762969970703125,-0.3468780517578125
2024-06-20T17:22:13.568+02:00,3398.19582825,0.4251251220703125,0.53045654296875,0.0638885498046875
2024-06-20T17:22:13.568+02:00,3398.20588625,0.5119171142578125,0.51165771484375,-0.115081787109375
2024-06-20T17:22:13.569+02:00,3398.21594325,0.3526763916015625,0.54156494140625,-0.4607696533203125
2024-06-20T17:22:13.569+02:00,3398.22600125,0.154052734375,0.862152099609375,-0.5750885009765625
2024-06-20T17:22:13.569+02:00,3398.23605925,0.0831451416015625,1.234329223632812,-0.564208984375
2024-06-20T17:22:13.569+02:00,3398.24611625,0.1669464111328125,1.451278686523438,-0.5142059326171875
2024-06-20T17:22:13.569+02:00,3398.25617425,0.3286285400390625,1.482315063476562,-0.36444091796875
2024-06-20T17:22:13.570+02:00,3398.26623125,0.4602203369140625,1.245895385742188,-0.2386016845703125
2024-06-20T17:22:13.570+02:00,3398.27628925,0.4201202392578125,0.803558349609375,-0.044952392578125
2024-06-20T17:22:13.570+02:00,3398.28634725,0.2533721923828125,0.218536376953125,-0.17626953125
2024-06-20T17:22:13.570+02:00,3398.29640425,0.0985107421875,-0.188873291015625,-0.4024658203125
2024-06-20T17:22:13.571+02:00,3398.30646225,0.02264404296875,-0.138671875,-0.3690643310546875
2024-06-20T17:22:13.571+02:00,3398.31651925,0.01361083984375,0.3541717529296875,-0.3118438720703125
2024-06-20T17:22:13.571+02:00,3398.32657725,0.0166473388671875,0.77105712890625,-0.575531005859375
2024-06-20T17:22:13.571+02:00,3398.33663525,-0.0133209228515625,1.02203369140625,-0.8999176025390625
2024-06-20T17:22:13.572+02:00,3398.34669225,-0.0382843017578125,1.28387451171875,-0.6337432861328125
2024-06-20T17:22:13.572+02:00,3398.35675025,-0.066070556640625,1.042221069335938,0.251129150390625
2024-06-20T17:22:13.572+02:00,3398.36680725,-0.0206451416015625,0.5028076171875,0.9625701904296875
2024-06-20T17:22:13.572+02:00,3398.37686525,0.106109619140625,1.055419921875,0.875335693359375
2024-06-20T17:22:13.573+02:00,3398.38692225,0.28656005859375,2.071319580078125,-0.4546966552734375
2024-06-20T17:22:13.573+02:00,3398.39698025,0.245452880859375,1.533248901367188,-1.046340942382812
2024-06-20T17:22:13.573+02:00,3398.40703825,0.1032867431640625,0.874725341796875,-0.23590087890625
2024-06-20T17:22:13.573+02:00,3398.41709525,0.3409576416015625,0.7586212158203125,-0.0247802734375
2024-06-20T17:22:13.574+02:00,3398.42715325,0.5855712890625,0.5868682861328125,-0.52032470703125
2024-06-20T17:22:13.574+02:00,3398.43721025,0.4705810546875,0.6010894775390625,-0.6829376220703125
2024-06-20T17:22:13.574+02:00,3398.44726825,0.170379638671875,0.9774627685546875,-0.454986572265625
2024-06-20T17:22:13.574+02:00,3398.45732625,0.064178466796875,1.25860595703125,-0.383148193359375
2024-06-20T17:22:13.575+02:00,3398.46738325,0.2381439208984375,1.466583251953125,-0.23004150390625
2024-06-20T17:22:13.575+02:00,3398.47744125,0.4669647216796875,1.477874755859375,0.07171630859375
2024-06-20T17:22:13.575+02:00,3398.48749825,0.5329132080078125,0.9646148681640625,-0.09051513671875
2024-06-20T17:22:13.575+02:00,3398.49755625,0.391082763671875,0.4689178466796875,-0.2756195068359375
2024-06-20T17:22:13.575+02:00,3398.50761425,0.17413330078125,0.2843780517578125,-0.4249267578125
2024-06-20T17:22:13.576+02:00,3398.51767125,-0.004425048828125,0.329681396484375,-0.72552490234375
2024-06-20T17:22:13.576+02:00,3398.52772925,-0.094696044921875,0.6317901611328125,-0.8389129638671875
2024-06-20T17:22:13.576+02:00,3398.53778625,-0.14013671875,1.1181640625,-0.7004547119140625
2024-06-20T17:22:13.576+02:00,3398.54784425,-0.0933380126953125,1.100265502929688,-0.155029296875
2024-06-20T17:22:13.576+02:00,3398.55790225,0.07550048828125,0.6899871826171875,0.494110107421875
2024-06-20T17:22:13.577+02:00,3398.56795925,0.2805328369140625,0.8078460693359375,0.7868194580078125
2024-06-20T17:22:13.577+02:00,3398.57801725,0.4915771484375,1.635406494140625,0.13043212890625
2024-06-20T17:22:13.577+02:00,3398.58807425,0.4772796630859375,1.733474731445312,-0.3174285888671875
2024-06-20T17:22:13.577+02:00,3398.59813225,0.2686614990234375,1.0687255859375,-0.2635498046875
2024-06-20T17:22:13.578+02:00,3398.60818925,0.341522216796875,0.7328948974609375,-0.327301025390625
2024-06-20T17:22:13.578+02:00,3398.61824725,0.4597930908203125,0.624542236328125,-0.6234130859375
2024-06-20T17:22:13.578+02:00,3398.62830525,0.2984161376953125,0.7015380859375,-0.5796356201171875
2024-06-20T17:22:13.578+02:00,3398.63836225,0.096221923828125,0.9157867431640625,-0.4541778564453125
2024-06-20T17:22:13.578+02:00,3398.64842025,0.0813446044921875,1.037368774414062,-0.4257965087890625
