loggingTime(txt),accelerometerTimestamp_sinceReboot(s),accelerometerAccelerationX(G),accelerometerAccelerationY(G),accelerometerAccelerationZ(G)
2024-06-20T17:56:27.998+02:00,4599.164952625,-0.86981201171875,0.1080169677734375,-0.4706878662109375
2024-06-20T17:56:27.999+02:00,4599.175009625001,-0.8641510009765625,0.1091156005859375,-0.47259521484375
2024-06-20T17:56:28.004+02:00,4599.185067625001,-0.860809326171875,0.108978271484375,-0.4741668701171875
2024-06-20T17:56:28.007+02:00,4599.195124625,-0.8608856201171875,0.10821533203125,-0.4763336181640625
2024-06-20T17:56:28.007+02:00,4599.205182625,-0.8586578369140625,0.110107421875,-0.478851318359375
2024-06-20T17:56:28.008+02:00,4599.215239625,-0.8592529296875,0.1105804443359375,-0.4795989990234375
2024-06-20T17:56:28.008+02:00,4599.225297625,-0.859527587890625,0.1100616455078125,-0.478607177734375
2024-06-20T17:56:28.008+02:00,4599.235354625001,-0.8601531982421875,0.1089630126953125,-0.4722900390625
2024-06-20T17:56:28.008+02:00,4599.245412625,-0.8666229248046875,0.108184814453125,-0.4707489013671875
2024-06-20T17:56:28.009+02:00,4599.255469625,-0.86968994140625,0.112701416015625,-0.4665069580078125
2024-06-20T17:56:28.009+02:00,4599.265527625001,-0.8659820556640625,0.113922119140625,-0.46612548828125
2024-06-20T17:56:28.009+02:00,4599.275584625,-0.866363525390625,0.1135406494140625,-0.4647369384765625
2024-06-20T17:56:28.009+02:00,4599.285642625,-0.86572265625,0.111419677734375,-0.468597412109375
2024-06-20T17:56:28.010+02:00,4599.295699625,-0.8610382080078125,0.11553955078125,-0.4713287353515625
2024-06-20T17:56:28.010+02:00,4599.305709625,-0.8571929931640625,0.1181640625,-0.479644775390625
2024-06-20T17:56:28.010+02:00,4599.325692625001,-0.853118896484375,0.1186065673828125,-0.494232177734375
2024-06-20T17:56:28.011+02:00,4599.345675625001,-0.85162353515625,0.126556396484375,-0.50787353515625
2024-06-20T17:56:28.011+02:00,4599.365659625,-0.8508148193359375,0.1256561279296875,-0.512939453125
2024-06-20T17:56:28.011+02:00,4599.3856415,-0.846527099609375,0.1292572021484375,-0.513458251953125
2024-06-20T17:56:28.011+02:00,4599.4056245,-0.8480224609375,0.1325531005859375,-0.509857177734375
2024-06-20T17:56:28.011+02:00,4599.4256075,-0.8452606201171875,0.130157470703125,-0.5066680908203125
2024-06-20T17:56:28.012+02:00,4599.4455905,-0.8470458984375,0.126129150390625,-0.4999542236328125
2024-06-20T17:56:28.012+02:00,4599.4655725,-0.852294921875,0.127960205078125,-0.4974517822265625
2024-06-20T17:56:28.012+02:00,4599.485553500001,-0.8660430908203125,0.127838134765625,-0.4962310791015625
2024-06-20T17:56:28.012+02:00,4599.505533500001,-0.8744964599609375,0.1240234375,-0.49755859375
2024-06-20T17:56:28.013+02:00,4599.525513500001,-0.8736419677734375,0.12188720703125,-0.4906158447265625
2024-06-20T17:56:28.013+02:00,4599.5454955,-0.8546905517578125,0.122650146484375,-0.480133056640625
2024-06-20T17:56:28.013+02:00,4599.5654765,-0.8496551513671875,0.123321533203125,-0.4705810546875
2024-06-20T17:56:28.013+02:00,4599.5854595,-0.85467529296875,0.12542724609375,-0.45654296875
2024-06-20T17:56:28.014+02:00,4599.6054415,-0.866455078125,0.1358795166015625,-0.458465576171875
2024-06-20T17:56:28.014+02:00,4599.6254255,-0.8613739013671875,0.137969970703125,-0.464813232421875
2024-06-20T17:56:28.014+02:00,4599.6454085,-0.851287841796875,0.1421051025390625,-0.4725494384765625
2024-06-20T17:56:28.014+02:00,4599.665391500001,-0.8434906005859375,0.139434814453125,-0.4855194091796875
2024-06-20T17:56:28.014+02:00,4599.6853745,-0.849456787109375,0.1403961181640625,-0.4953460693359375
2024-06-20T17:56:28.015+02:00,4599.705356500001,-0.8457794189453125,0.1410369873046875,-0.50164794921875
2024-06-20T17:56:28.015+02:00,4599.7253385,-0.848419189453125,0.1397857666015625,-0.506866455078125
2024-06-20T17:56:28.015+02:00,4599.7453225,-0.847686767578125,0.1400146484375,-0.5064544677734375
2024-06-20T17:56:28.015+02:00,4599.765304500001,-0.8520660400390625,0.13836669921875,-0.5085296630859375
2024-06-20T17:56:28.016+02:00,4599.7852885,-0.85443115234375,0.13714599609375,-0.5063934326171875
2024-06-20T17:56:28.016+02:00,4599.805272500001,-0.8519439697265625,0.1370086669921875,-0.5041351318359375
2024-06-20T17:56:28.016+02:00,4599.8252555,-0.850738525390625,0.13299560546875,-0.498260498046875
2024-06-20T17:56:28.016+02:00,4599.845237500001,-0.8460540771484375,0.1288299560546875,-0.4915008544921875
2024-06-20T17:56:28.016+02:00,4599.8652195,-0.8601837158203125,0.1305694580078125,-0.48834228515625
2024-06-20T17:56:28.017+02:00,4599.8852015,-0.86395263671875,0.1325531005859375,-0.4899749755859375
2024-06-20T17:56:28.017+02:00,4599.9051835,-0.8556976318359375,0.1419677734375,-0.4907989501953125
2024-06-20T17:56:28.017+02:00,4599.925165500001,-0.8562164306640625,0.153900146484375,-0.4892120361328125
2024-06-20T17:56:28.017+02:00,4599.945147500001,-0.8501129150390625,0.1565399169921875,-0.4903106689453125
2024-06-20T17:56:28.018+02:00,4599.9651315,-0.8313751220703125,0.163543701171875,-0.4947662353515625
2024-06-20T17:56:28.018+02:00,4599.9851135,-0.838653564453125,0.16748046875,-0.50384521484375
2024-06-20T17:56:28.018+02:00,4600.0050965,-0.839630126953125,0.182281494140625,-0.5108489990234375
2024-06-20T17:56:28.018+02:00,4600.0250785,-0.8311004638671875,0.1712799072265625,-0.5104217529296875
2024-06-20T17:56:28.018+02:00,4600.045060500001,-0.8264617919921875,0.1807708740234375,-0.514892578125
2024-06-20T17:56:28.019+02:00,4600.065043500001,-0.829254150390625,0.1734161376953125,-0.525238037109375
2024-06-20T17:56:28.019+02:00,4600.0850265,-0.8391571044921875,0.1724090576171875,-0.525848388671875
2024-06-20T17:56:28.019+02:00,4600.1050075,-0.8407135009765625,0.161834716796875,-0.518402099609375
2024-06-20T17:56:28.019+02:00,4600.1249895,-0.8424835205078125,0.158721923828125,-0.5060882568359375
2024-06-20T17:56:28.019+02:00,4600.144973500001,-0.8491668701171875,0.1575469970703125,-0.501983642578125
2024-06-20T17:56:28.020+02:00,4600.1649555,-0.844512939453125,0.1637420654296875,-0.4871978759765625
2024-06-20T17:56:28.020+02:00,4600.184936500001,-0.849395751953125,0.169189453125,-0.4734344482421875
2024-06-20T17:56:28.020+02:00,4600.204918500001,-0.8492431640625,0.17327880859375,-0.46954345703125
2024-06-20T17:56:28.020+02:00,4600.2249005,-0.862091064453125,0.177032470703125,-0.469696044921875
2024-06-20T17:56:28.021+02:00,4600.2448805,-0.8469696044921875,0.1798248291015625,-0.476776123046875
2024-06-20T17:56:28.021+02:00,4600.2648625,-0.8382110595703125,0.1968994140625,-0.4832763671875
2024-06-20T17:56:28.021+02:00,4600.2848425,-0.8304901123046875,0.2047882080078125,-0.4869384765625
2024-06-20T17:56:28.021+02:00,4600.304823500001,-0.8255157470703125,0.20849609375,-0.493896484375
2024-06-20T17:56:28.021+02:00,4600.324803500001,-0.818084716796875,0.215911865234375,-0.507720947265625
2024-06-20T17:56:28.022+02:00,4600.3447845,-0.8159942626953125,0.2123870849609375,-0.5081024169921875
2024-06-20T17:56:28.022+02:00,4600.3647655,-0.8123931884765625,0.2229156494140625,-0.5096893310546875
2024-06-20T17:56:28.022+02:00,4600.38474775,-0.829376220703125,0.2204132080078125,-0.5132293701171875
2024-06-20T17:56:28.022+02:00,4600.40473075,-0.840545654296875,0.2253570556640625,-0.5081939697265625
2024-06-20T17:56:28.022+02:00,4600.42471275,-0.8463287353515625,0.227508544921875,-0.4983367919921875
2024-06-20T17:56:28.023+02:00,4600.44469475,-0.8321380615234375,0.2321014404296875,-0.4915313720703125
2024-06-20T17:56:28.023+02:00,4600.46467475,-0.817962646484375,0.2381591796875,-0.480743408203125
2024-06-20T17:56:28.023+02:00,4600.48465675,-0.8204803466796875,0.24017333984375,-0.4809722900390625
2024-06-20T17:56:28.023+02:00,4600.504638750001,-0.8238677978515625,0.2368316650390625,-0.4744110107421875
2024-06-20T17:56:28.024+02:00,4600.52461975,-0.8280181884765625,0.24212646484375,-0.4706573486328125
2024-06-20T17:56:28.024+02:00,4600.54460075,-0.833709716796875,0.246002197265625,-0.4748077392578125
2024-06-20T17:56:28.024+02:00,4600.56458275,-0.83233642578125,0.2517852783203125,-0.47930908203125
2024-06-20T17:56:28.024+02:00,4600.584566750001,-0.831329345703125,0.2591094970703125,-0.480865478515625
2024-06-20T17:56:28.025+02:00,4600.60454775,-0.8304290771484375,0.2724609375,-0.4847259521484375
2024-06-20T17:56:28.025+02:00,4600.62452975,-0.830596923828125,0.272613525390625,-0.4885406494140625
2024-06-20T17:56:28.025+02:00,4600.64451275,-0.8234405517578125,0.276275634765625,-0.4847564697265625
2024-06-20T17:56:28.025+02:00,4600.66449475,-0.8196258544921875,0.2860260009765625,-0.4884033203125
2024-06-20T17:56:28.025+02:00,4600.68447875,-0.8150787353515625,0.2962493896484375,-0.489349365234375
2024-06-20T17:56:28.026+02:00,4600.70446075,-0.8116302490234375,0.32196044921875,-0.4844970703125
2024-06-20T17:56:28.026+02:00,4600.714512750001,-0.81231689453125,0.3210601806640625,-0.4842987060546875
2024-06-20T17:56:28.026+02:00,4600.72457175,-0.8077850341796875,0.3213043212890625,-0.4822540283203125
2024-06-20T17:56:28.027+02:00,4600.73462975,-0.8088531494140625,0.3201446533203125,-0.480987548828125
2024-06-20T17:56:28.027+02:00,4600.74468675,-0.809478759765625,0.3319854736328125,-0.4799957275390625
2024-06-20T17:56:28.027+02:00,4600.75474475,-0.8099212646484375,0.3406219482421875,-0.47705078125
2024-06-20T17:56:28.027+02:00,4600.764801750001,-0.808990478515625,0.338958740234375,-0.478057861328125
2024-06-20T17:56:28.028+02:00,4600.77485975,-0.8068695068359375,0.33892822265625,-0.4766845703125
2024-06-20T17:56:28.028+02:00,4600.78491675,-0.811981201171875,0.3322296142578125,-0.4697418212890625
2024-06-20T17:56:28.028+02:00,4600.794974750001,-0.818603515625,0.344024658203125,-0.478973388671875
2024-06-20T17:56:28.028+02:00,4600.80503175,-0.820709228515625,0.354095458984375,-0.4780426025390625
2024-06-20T17:56:28.028+02:00,4600.815088750001,-0.82305908203125,0.3614959716796875,-0.484527587890625
2024-06-20T17:56:28.029+02:00,4600.82514675,-0.8175506591796875,0.3647003173828125,-0.481597900390625
2024-06-20T17:56:28.029+02:00,4600.83520375,-0.819305419921875,0.3609771728515625,-0.4805450439453125
2024-06-20T17:56:28.029+02:00,4600.845261750001,-0.8191986083984375,0.357025146484375,-0.4811553955078125
2024-06-20T17:56:28.029+02:00,4600.85531875,-0.82147216796875,0.3497772216796875,-0.4903411865234375
2024-06-20T17:56:28.030+02:00,4600.86537675,-0.8269500732421875,0.3430938720703125,-0.492584228515625
2024-06-20T17:56:28.030+02:00,4600.87543375,-0.8318634033203125,0.33953857421875,-0.49920654296875
2024-06-20T17:56:28.030+02:00,4600.88549175,-0.834808349609375,0.333160400390625,-0.504913330078125
2024-06-20T17:56:28.030+02:00,4600.895548750001,-0.834564208984375,0.3265533447265625,-0.506988525390625
2024-06-20T17:56:28.030+02:00,4600.905606750001,-0.8254852294921875,0.322296142578125,-0.5135650634765625
2024-06-20T17:56:28.031+02:00,4600.91566375,-0.8182830810546875,0.3162841796875,-0.526824951171875
2024-06-20T17:56:28.031+02:00,4600.92572175,-0.8214111328125,0.31390380859375,-0.533935546875
2024-06-20T17:56:28.031+02:00,4600.93577875,-0.8227081298828125,0.3150177001953125,-0.537933349609375
2024-06-20T17:56:28.031+02:00,4600.945835750001,-0.811676025390625,0.3140411376953125,-0.545318603515625
2024-06-20T17:56:28.032+02:00,4600.955893750001,-0.7930908203125,0.313446044921875,-0.5446014404296875
2024-06-20T17:56:28.032+02:00,4600.96595075,-0.7814178466796875,0.30963134765625,-0.5463409423828125
2024-06-20T17:56:28.032+02:00,4600.97600875,-0.7895355224609375,0.316192626953125,-0.5457763671875
2024-06-20T17:56:28.032+02:00,4600.98606575,-0.8060760498046875,0.333465576171875,-0.5420074462890625
2024-06-20T17:56:28.032+02:00,4600.99612375,-0.8236083984375,0.342254638671875,-0.53997802734375
2024-06-20T17:56:28.033+02:00,4601.006180750001,-0.8267364501953125,0.3422088623046875,-0.531951904296875
2024-06-20T17:56:28.033+02:00,4601.01623875,-0.8248748779296875,0.3314666748046875,-0.5236053466796875
2024-06-20T17:56:28.033+02:00,4601.02629575,-0.8053436279296875,0.3173675537109375,-0.5150146484375
2024-06-20T17:56:28.033+02:00,4601.036353750001,-0.7835693359375,0.3069915771484375,-0.50177001953125
2024-06-20T17:56:28.034+02:00,4601.04641075,-0.7879791259765625,0.3050384521484375,-0.4991302490234375
2024-06-20T17:56:28.034+02:00,4601.05646875,-0.818084716796875,0.3058319091796875,-0.5067138671875
2024-06-20T17:56:28.034+02:00,4601.06652575,-0.85015869140625,0.30078125,-0.517852783203125
2024-06-20T17:56:28.035+02:00,4601.07658375,-0.86273193359375,0.29107666015625,-0.5332183837890625
2024-06-20T17:56:28.035+02:00,4601.086640750001,-0.865692138671875,0.26953125,-0.565887451171875
2024-06-20T17:56:28.036+02:00,4601.096698750001,-0.859375,0.2563323974609375,-0.5875244140625
2024-06-20T17:56:28.036+02:00,4601.10675575,-0.858673095703125,0.2387237548828125,-0.578887939453125
2024-06-20T17:56:28.036+02:00,4601.11681375,-0.852874755859375,0.216400146484375,-0.5817718505859375
2024-06-20T17:56:28.036+02:00,4601.12687075,-0.8516693115234375,0.1963958740234375,-0.5743255615234375
2024-06-20T17:56:28.037+02:00,4601.136927750001,-0.8592681884765625,0.177459716796875,-0.5675506591796875
2024-06-20T17:56:28.037+02:00,4601.146985750001,-0.8626556396484375,0.1617279052734375,-0.5729827880859375
2024-06-20T17:56:28.037+02:00,4601.15704275,-0.860504150390625,0.1563262939453125,-0.549102783203125
2024-06-20T17:56:28.037+02:00,4601.16710075,-0.847564697265625,0.1367034912109375,-0.513427734375
2024-06-20T17:56:28.037+02:00,4601.17715775,-0.8243560791015625,0.113037109375,-0.4839630126953125
2024-06-20T17:56:28.038+02:00,4601.18721575,-0.8212432861328125,0.1108245849609375,-0.500213623046875
2024-06-20T17:56:28.038+02:00,4601.197272750001,-0.8472747802734375,0.1015472412109375,-0.5491180419921875
2024-06-20T17:56:28.038+02:00,4601.20733075,-0.8580169677734375,0.114349365234375,-0.592315673828125
2024-06-20T17:56:28.038+02:00,4601.21738775,-0.84600830078125,0.146636962890625,-0.6229400634765625
2024-06-20T17:56:28.039+02:00,4601.227445750001,-0.8357391357421875,0.1705474853515625,-0.6593475341796875
2024-06-20T17:56:28.039+02:00,4601.23750275,-0.8389434814453125,0.1865692138671875,-0.692413330078125
2024-06-20T17:56:28.039+02:00,4601.24756075,-0.8436431884765625,0.193023681640625,-0.69171142578125
2024-06-20T17:56:28.039+02:00,4601.25761775,-0.8360443115234375,0.161895751953125,-0.6686553955078125
2024-06-20T17:56:28.040+02:00,4601.26767575,-0.834136962890625,0.0955657958984375,-0.632232666015625
2024-06-20T17:56:28.040+02:00,4601.277732750001,-0.8366546630859375,0.05010986328125,-0.6165924072265625
2024-06-20T17:56:28.040+02:00,4601.28778975,-0.8534088134765625,0.0707855224609375,-0.6603240966796875
2024-06-20T17:56:28.040+02:00,4601.297849291667,-0.8827667236328125,0.1249542236328125,-0.7261199951171875
2024-06-20T17:56:28.041+02:00,4601.389856000001,-0.882110595703125,-0.0213470458984375,-0.5704193115234375
2024-06-20T17:56:28.041+02:00,4601.399913,-0.835601806640625,-0.017608642578125,-0.4322967529296875
2024-06-20T17:56:28.041+02:00,4601.409971,-0.8829498291015625,0.0989837646484375,-0.338165283203125
2024-06-20T17:56:28.041+02:00,4601.420028,-0.9364013671875,0.2023468017578125,-0.3955535888671875
2024-06-20T17:56:28.041+02:00,4601.430086,-0.87103271484375,0.1994171142578125,-0.52191162109375
2024-06-20T17:56:28.042+02:00,4601.440143000001,-0.832122802734375,0.1817779541015625,-0.522186279296875
2024-06-20T17:56:28.042+02:00,4601.450201000001,-0.850738525390625,0.0806427001953125,-0.4983367919921875
2024-06-20T17:56:28.042+02:00,4601.460258,-0.870361328125,0.0118255615234375,-0.454254150390625
2024-06-20T17:56:28.042+02:00,4601.470316,-0.881744384765625,0.022308349609375,-0.4336395263671875
2024-06-20T17:56:28.043+02:00,4601.480373,-0.901611328125,0.12750244140625,-0.49468994140625
2024-06-20T17:56:28.043+02:00,4601.49043,-0.8500518798828125,0.176666259765625,-0.5401458740234375
2024-06-20T17:56:28.043+02:00,4601.500488000001,-0.8109893798828125,0.19903564453125,-0.493621826171875
2024-06-20T17:56:28.043+02:00,4601.510545,-0.821533203125,0.18035888671875,-0.4835662841796875
2024-06-20T17:56:28.044+02:00,4601.520603,-0.8227996826171875,0.092864990234375,-0.470458984375
2024-06-20T17:56:28.044+02:00,4601.53066,-0.821258544921875,0.062744140625,-0.4590301513671875
2024-06-20T17:56:28.044+02:00,4601.540718,-0.811309814453125,0.0520477294921875,-0.4876708984375
2024-06-20T17:56:28.045+02:00,4601.550775000001,-0.8209686279296875,0.05755615234375,-0.536956787109375
2024-06-20T17:56:28.045+02:00,4601.560833,-0.8550262451171875,0.1270599365234375,-0.55487060546875
2024-06-20T17:56:28.045+02:00,4601.57089,-0.87493896484375,0.1659698486328125,-0.54229736328125
2024-06-20T17:56:28.045+02:00,4601.580948000001,-0.935394287109375,0.159454345703125,-0.6000823974609375
2024-06-20T17:56:28.045+02:00,4601.591005,-0.9417724609375,0.0865478515625,-0.531402587890625
2024-06-20T17:56:28.046+02:00,4601.601063,-0.887847900390625,0.05419921875,-0.4656524658203125
2024-06-20T17:56:28.046+02:00,4601.61112,-0.855316162109375,0.06341552734375,-0.4777374267578125
2024-06-20T17:56:28.046+02:00,4601.621178,-0.868988037109375,0.0900421142578125,-0.473876953125
2024-06-20T17:56:28.046+02:00,4601.631235,-0.8787384033203125,0.0886383056640625,-0.47259521484375
2024-06-20T17:56:28.046+02:00,4601.641293000001,-0.8422088623046875,0.0658416748046875,-0.4980926513671875
2024-06-20T17:56:28.047+02:00,4601.65135,-0.8168487548828125,0.0896453857421875,-0.51153564453125
2024-06-20T17:56:28.047+02:00,4601.661407000001,-0.80535888671875,0.1114654541015625,-0.5232696533203125
2024-06-20T17:56:28.047+02:00,4601.671465,-0.7969512939453125,0.1405792236328125,-0.5400543212890625
2024-06-20T17:56:28.047+02:00,4601.681522,-0.8105926513671875,0.12713623046875,-0.517822265625
2024-06-20T17:56:28.048+02:00,4601.691580000001,-0.8211517333984375,0.0554046630859375,-0.491302490234375
2024-06-20T17:56:28.048+02:00,4601.701637,-0.7938995361328125,0.052490234375,-0.51007080078125
2024-06-20T17:56:28.048+02:00,4601.711695,-0.7796478271484375,0.1543121337890625,-0.5343017578125
2024-06-20T17:56:28.048+02:00,4601.721752,-0.80780029296875,0.215179443359375,-0.58349609375
2024-06-20T17:56:28.048+02:00,4601.73181,-0.8230743408203125,0.196014404296875,-0.5798187255859375
2024-06-20T17:56:28.049+02:00,4601.741867000001,-0.81280517578125,0.1599884033203125,-0.543853759765625
2024-06-20T17:56:28.049+02:00,4601.751925,-0.7935028076171875,0.13006591796875,-0.53289794921875
2024-06-20T17:56:28.049+02:00,4601.761982,-0.797943115234375,0.169525146484375,-0.53515625
2024-06-20T17:56:28.049+02:00,4601.77204,-0.8126068115234375,0.2298126220703125,-0.5524444580078125
2024-06-20T17:56:28.049+02:00,4601.782097,-0.8082275390625,0.2154541015625,-0.561492919921875
2024-06-20T17:56:28.050+02:00,4601.792155,-0.80548095703125,0.155853271484375,-0.540802001953125
2024-06-20T17:56:28.050+02:00,4601.802212000001,-0.8125,0.1099853515625,-0.4854736328125
2024-06-20T17:56:28.050+02:00,4601.812269,-0.832275390625,0.138824462890625,-0.4929962158203125
2024-06-20T17:56:28.050+02:00,4601.822327,-0.8424224853515625,0.160614013671875,-0.54669189453125
2024-06-20T17:56:28.050+02:00,4601.832384,-0.841033935546875,0.1597442626953125,-0.5469970703125
2024-06-20T17:56:28.051+02:00,4601.842442,-0.8582611083984375,0.1685028076171875,-0.523223876953125
2024-06-20T17:56:28.051+02:00,4601.852499000001,-0.8565521240234375,0.15673828125,-0.5163421630859375
2024-06-20T17:56:28.051+02:00,4601.862557,-0.8371124267578125,0.1527557373046875,-0.524322509765625
2024-06-20T17:56:28.051+02:00,4601.872614,-0.8377838134765625,0.1474609375,-0.53936767578125
2024-06-20T17:56:28.052+02:00,4601.882672000001,-0.848236083984375,0.129241943359375,-0.54193115234375
2024-06-20T17:56:28.052+02:00,4601.892729,-0.855560302734375,0.1387786865234375,-0.53936767578125
2024-06-20T17:56:28.052+02:00,4601.902787,-0.8520355224609375,0.1539459228515625,-0.5388641357421875
2024-06-20T17:56:28.052+02:00,4601.912844,-0.85443115234375,0.149566650390625,-0.52960205078125
2024-06-20T17:56:28.053+02:00,4601.922902,-0.8693695068359375,0.0572662353515625,-0.4737396240234375
2024-06-20T17:56:28.053+02:00,4601.932959000001,-0.873626708984375,-0.110107421875,-0.422149658203125
2024-06-20T17:56:28.053+02:00,4601.943016,-0.8290863037109375,-0.1676788330078125,-0.40899658203125
2024-06-20T17:56:28.053+02:00,4601.953074,-0.8165435791015625,-0.02337646484375,-0.451385498046875
2024-06-20T17:56:28.054+02:00,4601.963131,-0.842437744140625,0.1067047119140625,-0.5406951904296875
2024-06-20T17:56:28.054+02:00,4601.973189,-0.827972412109375,0.0955963134765625,-0.532440185546875
2024-06-20T17:56:28.054+02:00,4601.983246000001,-0.8524322509765625,0.104705810546875,-0.487945556640625
2024-06-20T17:56:28.054+02:00,4601.993304000001,-0.8641357421875,0.07568359375,-0.5092926025390625
2024-06-20T17:56:28.055+02:00,4602.003361,-0.8512115478515625,0.0749053955078125,-0.5001373291015625
2024-06-20T17:56:28.055+02:00,4602.013419,-0.8678131103515625,0.094696044921875,-0.4840850830078125
2024-06-20T17:56:28.055+02:00,4602.023476,-0.871124267578125,0.0655670166015625,-0.50408935546875
2024-06-20T17:56:28.055+02:00,4602.033534,-0.8443145751953125,0.035491943359375,-0.4950408935546875
2024-06-20T17:56:28.055+02:00,4602.043591000001,-0.8338165283203125,0.041046142578125,-0.517669677734375
2024-06-20T17:56:28.056+02:00,4602.053649,-0.8905029296875,0.0714111328125,-0.5559539794921875
2024-06-20T17:56:28.056+02:00,4602.063706,-0.9127960205078125,0.0652618408203125,-0.53192138671875
2024-06-20T17:56:28.056+02:00,4602.073764000001,-0.86138916015625,0.030609130859375,-0.5582427978515625
2024-06-20T17:56:28.056+02:00,4602.083821,-0.8333282470703125,0.069610595703125,-0.582183837890625
2024-06-20T17:56:28.056+02:00,4602.093878000001,-0.8370208740234375,0.1168212890625,-0.6036224365234375
2024-06-20T17:56:28.057+02:00,4602.103936,-0.8307647705078125,0.1155853271484375,-0.5955810546875
2024-06-20T17:56:28.057+02:00,4602.113993,-0.8305816650390625,0.1044769287109375,-0.5837554931640625
2024-06-20T17:56:28.058+02:00,4602.124051000001,-0.832855224609375,0.0926055908203125,-0.56884765625
2024-06-20T17:56:28.058+02:00,4602.134108,-0.8261566162109375,0.09039306640625,-0.5515289306640625
2024-06-20T17:56:28.058+02:00,4602.144166,-0.8214874267578125,0.0748748779296875,-0.5433197021484375
2024-06-20T17:56:28.059+02:00,4602.154223,-0.81536865234375,0.0519256591796875,-0.5221405029296875
2024-06-20T17:56:28.059+02:00,4602.164281,-0.8212127685546875,0.0908660888671875,-0.5043182373046875
2024-06-20T17:56:28.059+02:00,4602.174338000001,-0.8306732177734375,0.137115478515625,-0.52850341796875
2024-06-20T17:56:28.059+02:00,4602.184396000001,-0.81170654296875,0.1084442138671875,-0.5294647216796875
2024-06-20T17:56:28.060+02:00,4602.194453,-0.8299407958984375,0.119903564453125,-0.51953125
2024-06-20T17:56:28.060+02:00,4602.204511,-0.85382080078125,0.1144256591796875,-0.5250396728515625
2024-06-20T17:56:28.060+02:00,4602.214568,-0.848724365234375,0.068817138671875,-0.5317535400390625
2024-06-20T17:56:28.060+02:00,4602.224625,-0.831085205078125,0.03363037109375,-0.530792236328125
2024-06-20T17:56:28.061+02:00,4602.234683000001,-0.8335113525390625,0.0498046875,-0.509674072265625
2024-06-20T17:56:28.061+02:00,4602.24474,-0.853607177734375,0.10986328125,-0.50567626953125
2024-06-20T17:56:28.061+02:00,4602.254798,-0.870147705078125,0.0872650146484375,-0.528594970703125
2024-06-20T17:56:28.061+02:00,4602.264855,-0.866119384765625,0.068328857421875,-0.5307769775390625
2024-06-20T17:56:28.062+02:00,4602.274913,-0.8670501708984375,0.075927734375,-0.5278472900390625
2024-06-20T17:56:28.062+02:00,4602.284970000001,-0.873077392578125,0.061431884765625,-0.5481109619140625
2024-06-20T17:56:28.062+02:00,4602.295028,-0.8624267578125,0.0338592529296875,-0.5476837158203125
2024-06-20T17:56:28.062+02:00,4602.305085,-0.8587188720703125,0.0586090087890625,-0.5280609130859375
2024-06-20T17:56:28.063+02:00,4602.315143000001,-0.8529510498046875,0.0714874267578125,-0.51654052734375
2024-06-20T17:56:28.063+02:00,4602.3252,-0.845947265625,0.0633544921875,-0.5074310302734375
2024-06-20T17:56:28.063+02:00,4602.335258,-0.8502197265625,0.0611724853515625,-0.5143585205078125
2024-06-20T17:56:28.063+02:00,4602.345315,-0.843536376953125,0.0583953857421875,-0.530242919921875
2024-06-20T17:56:28.064+02:00,4602.355372,-0.838897705078125,0.06488037109375,-0.5349273681640625
2024-06-20T17:56:28.064+02:00,4602.36543,-0.8470458984375,0.047088623046875,-0.545501708984375
2024-06-20T17:56:28.064+02:00,4602.375487,-0.8490447998046875,0.0471649169921875,-0.5461883544921875
2024-06-20T17:56:28.064+02:00,4602.385543916667,-0.8658294677734375,0.0903472900390625,-0.55682373046875
2024-06-20T17:56:28.065+02:00,4602.395600916667,-0.8612213134765625,0.0835723876953125,-0.576934814453125
2024-06-20T17:56:28.065+02:00,4602.405658916667,-0.842193603515625,0.03509521484375,-0.5836181640625
2024-06-20T17:56:28.065+02:00,4602.415715916667,-0.84246826171875,-0.0030975341796875,-0.5738372802734375
2024-06-20T17:56:28.065+02:00,4602.425773916667,-0.8484039306640625,-0.0115509033203125,-0.5674896240234375
2024-06-20T17:56:28.065+02:00,4602.526688416667,-0.24725341796875,0.0087432861328125,-0.9108123779296875
2024-06-20T17:56:28.066+02:00,4602.536746416667,-0.2425079345703125,0.012115478515625,-0.9146270751953125
2024-06-20T17:56:28.066+02:00,4602.546803416667,-0.2396087646484375,-0.00299072265625,-0.913726806640625
2024-06-20T17:56:28.066+02:00,4602.556861416667,-0.2354888916015625,-0.0084075927734375,-0.9218292236328125
2024-06-20T17:56:28.066+02:00,4602.566918416667,-0.2350616455078125,-0.0034332275390625,-0.934722900390625
2024-06-20T17:56:28.066+02:00,4602.576975416667,-0.236083984375,-0.014312744140625,-0.9258880615234375
2024-06-20T17:56:28.067+02:00,4602.587033416667,-0.2344818115234375,-0.032470703125,-0.930938720703125
2024-06-20T17:56:28.067+02:00,4602.597090416667,-0.2337646484375,-0.0266571044921875,-0.94287109375
2024-06-20T17:56:28.067+02:00,4602.607148416667,-0.2366485595703125,-0.0249481201171875,-0.953460693359375
2024-06-20T17:56:28.067+02:00,4602.617205416667,-0.2305908203125,-0.034698486328125,-0.957061767578125
2024-06-20T17:56:28.067+02:00,4602.627263416667,-0.2225341796875,-0.0417022705078125,-0.9630889892578125
2024-06-20T17:56:28.068+02:00,4602.637320416667,-0.2227325439453125,-0.03460693359375,-0.9798126220703125
2024-06-20T17:56:28.068+02:00,4602.647378416667,-0.22979736328125,-0.03216552734375,-0.998199462890625
2024-06-20T17:56:28.068+02:00,4602.657435416667,-0.2354888916015625,-0.037353515625,-1.007110595703125
2024-06-20T17:56:28.068+02:00,4602.667493416667,-0.233489990234375,-0.048858642578125,-0.998931884765625
2024-06-20T17:56:28.069+02:00,4602.677550416667,-0.2238616943359375,-0.054931640625,-0.994720458984375
2024-06-20T17:56:28.069+02:00,4602.687607416667,-0.22515869140625,-0.0371551513671875,-1.00445556640625
2024-06-20T17:56:28.069+02:00,4602.697665416666,-0.2287139892578125,-0.023681640625,-1.011550903320312
2024-06-20T17:56:28.069+02:00,4602.707722416667,-0.2306976318359375,-0.034912109375,-1.0157470703125
2024-06-20T17:56:28.069+02:00,4602.717780416667,-0.2326202392578125,-0.04150390625,-1.012344360351562
2024-06-20T17:56:28.070+02:00,4602.727837416667,-0.23468017578125,-0.0422515869140625,-1.010269165039062
2024-06-20T17:56:28.070+02:00,4602.737895416667,-0.22845458984375,-0.0291900634765625,-1.009674072265625
2024-06-20T17:56:28.070+02:00,4602.747952416667,-0.2259063720703125,-0.0211181640625,-1.010726928710938
2024-06-20T17:56:28.070+02:00,4602.758010416667,-0.2310791015625,-0.019378662109375,-1.014328002929688
2024-06-20T17:56:28.070+02:00,4602.768067416667,-0.242462158203125,-0.0219573974609375,-1.005523681640625
2024-06-20T17:56:28.071+02:00,4602.778125416667,-0.242095947265625,-0.030364990234375,-1.001190185546875
2024-06-20T17:56:28.071+02:00,4602.788182416667,-0.2389984130859375,-0.0207366943359375,-0.99713134765625
2024-06-20T17:56:28.071+02:00,4602.798240416667,-0.2398681640625,-0.0113525390625,-0.9911041259765625
2024-06-20T17:56:28.071+02:00,4602.808297416667,-0.2402496337890625,-0.0194244384765625,-0.9911956787109375
2024-06-20T17:56:28.072+02:00,4602.818354416667,-0.2385406494140625,-0.0222930908203125,-0.993194580078125
2024-06-20T17:56:28.072+02:00,4602.828412416667,-0.23651123046875,-0.018341064453125,-0.9879150390625
2024-06-20T17:56:28.072+02:00,4602.838469416667,-0.238311767578125,-0.01519775390625,-0.9910125732421875
2024-06-20T17:56:28.072+02:00,4602.848527416667,-0.237030029296875,-0.0001068115234375,-0.997955322265625
2024-06-20T17:56:28.072+02:00,4602.858584416667,-0.239044189453125,0.0076446533203125,-0.9905548095703125
2024-06-20T17:56:28.073+02:00,4602.868642416667,-0.23846435546875,-0.0001220703125,-0.9802703857421875
2024-06-20T17:56:28.073+02:00,4602.878699416667,-0.2357940673828125,-0.0131072998046875,-0.9682769775390625
2024-06-20T17:56:28.073+02:00,4602.888757416667,-0.231353759765625,-0.02056884765625,-0.96478271484375
2024-06-20T17:56:28.074+02:00,4602.898814416667,-0.22869873046875,-0.0106048583984375,-0.9710540771484375
2024-06-20T17:56:28.074+02:00,4602.908872416667,-0.23358154296875,-0.00323486328125,-0.9639434814453125
2024-06-20T17:56:28.074+02:00,4602.918929416667,-0.2306365966796875,-0.0071258544921875,-0.952362060546875
2024-06-20T17:56:28.074+02:00,4602.928986416667,-0.229248046875,-0.01239013671875,-0.95172119140625
2024-06-20T17:56:28.074+02:00,4602.939044416667,-0.235809326171875,-0.008148193359375,-0.9634246826171875
2024-06-20T17:56:28.075+02:00,4602.949101416667,-0.237396240234375,-0.0018157958984375,-0.9805755615234375
2024-06-20T17:56:28.075+02:00,4602.959159416667,-0.2337799072265625,-0.0003814697265625,-0.990081787109375
2024-06-20T17:56:28.075+02:00,4602.969216416667,-0.235137939453125,-0.0068511962890625,-0.99322509765625
2024-06-20T17:56:28.075+02:00,4602.979274416667,-0.23431396484375,-0.013153076171875,-0.992950439453125
2024-06-20T17:56:28.076+02:00,4602.989331416667,-0.2357635498046875,-0.0155029296875,-0.9944305419921875
2024-06-20T17:56:28.076+02:00,4602.999389416667,-0.2377166748046875,-0.008697509765625,-0.9913482666015625
2024-06-20T17:56:28.076+02:00,4603.009446416667,-0.2372589111328125,-0.008148193359375,-0.9868927001953125
2024-06-20T17:56:28.076+02:00,4603.019504416667,-0.23419189453125,-0.0127410888671875,-0.9842987060546875
2024-06-20T17:56:28.076+02:00,4603.029561416667,-0.2333526611328125,-0.0152130126953125,-0.9883270263671875
2024-06-20T17:56:28.077+02:00,4603.039618416667,-0.2350616455078125,-0.014495849609375,-0.988037109375
2024-06-20T17:56:28.077+02:00,4603.049676416667,-0.236236572265625,-0.01458740234375,-0.98468017578125
2024-06-20T17:56:28.077+02:00,4603.059733416667,-0.234039306640625,-0.017425537109375,-0.9785308837890625
2024-06-20T17:56:28.077+02:00,4603.069791416667,-0.2331695556640625,-0.017974853515625,-0.9674072265625
2024-06-20T17:56:28.078+02:00,4603.079848416667,-0.2327728271484375,-0.020599365234375,-0.956878662109375
2024-06-20T17:56:28.078+02:00,4603.089906416667,-0.22979736328125,-0.02117919921875,-0.9538421630859375
2024-06-20T17:56:28.078+02:00,4603.099963416667,-0.22491455078125,-0.01727294921875,-0.96124267578125
2024-06-20T17:56:28.078+02:00,4603.110021416667,-0.233917236328125,-0.012725830078125,-0.9598236083984375
2024-06-20T17:56:28.079+02:00,4603.120078416667,-0.237518310546875,-0.0215301513671875,-0.9583587646484375
2024-06-20T17:56:28.079+02:00,4603.130136416667,-0.232696533203125,-0.02703857421875,-0.947357177734375
2024-06-20T17:56:28.079+02:00,4603.140193416667,-0.2303009033203125,-0.0408172607421875,-0.931427001953125
2024-06-20T17:56:28.079+02:00,4603.150250416666,-0.2277374267578125,-0.0416412353515625,-0.92291259765625
2024-06-20T17:56:28.080+02:00,4603.160308416667,-0.2278900146484375,-0.0310821533203125,-0.9227294921875
2024-06-20T17:56:28.080+02:00,4603.170365416667,-0.2300872802734375,-0.0252838134765625,-0.9316253662109375
2024-06-20T17:56:28.080+02:00,4603.180423416667,-0.2287750244140625,-0.0294952392578125,-0.927947998046875
2024-06-20T17:56:28.081+02:00,4603.190480416667,-0.2323760986328125,-0.0397491455078125,-0.9281158447265625
2024-06-20T17:56:28.081+02:00,4603.200538416667,-0.22003173828125,-0.047760009765625,-0.9305572509765625
2024-06-20T17:56:28.081+02:00,4603.210595416667,-0.2260894775390625,-0.0350799560546875,-0.9340057373046875
2024-06-20T17:56:28.081+02:00,4603.220653416667,-0.232818603515625,-0.0305938720703125,-0.940887451171875
2024-06-20T17:56:28.082+02:00,4603.230710416667,-0.2300872802734375,-0.0338134765625,-0.9413909912109375
2024-06-20T17:56:28.082+02:00,4603.240768416667,-0.2300567626953125,-0.0359649658203125,-0.936492919921875
2024-06-20T17:56:28.082+02:00,4603.250825416667,-0.227203369140625,-0.0427703857421875,-0.9340972900390625
2024-06-20T17:56:28.082+02:00,4603.260882416667,-0.2318572998046875,-0.0451507568359375,-0.934906005859375
2024-06-20T17:56:28.083+02:00,4603.270940416667,-0.22869873046875,-0.050079345703125,-0.9354095458984375
2024-06-20T17:56:28.083+02:00,4603.280997416667,-0.2292327880859375,-0.0459747314453125,-0.9327545166015625
2024-06-20T17:56:28.083+02:00,4603.291055416666,-0.232666015625,-0.0398406982421875,-0.9394683837890625
2024-06-20T17:56:28.084+02:00,4603.301112416667,-0.2285308837890625,-0.0380706787109375,-0.941741943359375
2024-06-20T17:56:28.084+02:00,4603.311170416667,-0.2266082763671875,-0.0446319580078125,-0.9424285888671875
2024-06-20T17:56:28.085+02:00,4603.321227416667,-0.2284393310546875,-0.049163818359375,-0.9402923583984375
2024-06-20T17:56:28.085+02:00,4603.331285416667,-0.2291412353515625,-0.0479583740234375,-0.944854736328125
2024-06-20T17:56:28.085+02:00,4603.341342416667,-0.225799560546875,-0.0464019775390625,-0.9497222900390625
2024-06-20T17:56:28.086+02:00,4603.351399416667,-0.2231597900390625,-0.0493316650390625,-0.956451416015625
2024-06-20T17:56:28.086+02:00,4603.361457416667,-0.2217864990234375,-0.05743408203125,-0.9513397216796875
2024-06-20T17:56:28.086+02:00,4603.371514416667,-0.2207183837890625,-0.06195068359375,-0.9513397216796875
2024-06-20T17:56:28.086+02:00,4603.381572,-0.21820068359375,-0.05828857421875,-0.95379638671875
2024-06-20T17:56:28.086+02:00,4603.391629000001,-0.2170257568359375,-0.0515899658203125,-0.9549560546875
2024-06-20T17:56:28.087+02:00,4603.401687,-0.2169036865234375,-0.0526885986328125,-0.955322265625
2024-06-20T17:56:28.087+02:00,4603.411744,-0.217193603515625,-0.0551910400390625,-0.9547576904296875
2024-06-20T17:56:28.087+02:00,4603.421802,-0.21826171875,-0.0556182861328125,-0.9564056396484375
2024-06-20T17:56:28.087+02:00,4603.431859,-0.2171630859375,-0.060791015625,-0.9540557861328125
2024-06-20T17:56:28.088+02:00,4603.441917,-0.2179107666015625,-0.0695343017578125,-0.9529876708984375
2024-06-20T17:56:28.088+02:00,4603.451974000001,-0.215118408203125,-0.06768798828125,-0.954071044921875
2024-06-20T17:56:28.088+02:00,4603.462031,-0.2149505615234375,-0.060699462890625,-0.9632568359375
2024-06-20T17:56:28.088+02:00,4603.472089,-0.215179443359375,-0.062408447265625,-0.9652862548828125
2024-06-20T17:56:28.089+02:00,4603.482146,-0.2187347412109375,-0.0661468505859375,-0.9654541015625
2024-06-20T17:56:28.089+02:00,4603.492204,-0.2218780517578125,-0.0647430419921875,-0.9650421142578125
2024-06-20T17:56:28.089+02:00,4603.502261000001,-0.22161865234375,-0.06439208984375,-0.966400146484375
2024-06-20T17:56:28.089+02:00,4603.512319,-0.2197723388671875,-0.0718231201171875,-0.9630279541015625
2024-06-20T17:56:28.089+02:00,4603.522376,-0.21295166015625,-0.075164794921875,-0.9570465087890625
2024-06-20T17:56:28.090+02:00,4603.532434000001,-0.2125396728515625,-0.067657470703125,-0.9530487060546875
2024-06-20T17:56:28.090+02:00,4603.542491,-0.2208099365234375,-0.0606231689453125,-0.9549713134765625
2024-06-20T17:56:28.090+02:00,4603.552548875,-0.239044189453125,-0.0612030029296875,-0.9581298828125
2024-06-20T17:56:28.090+02:00,4603.635764916667,-0.205474853515625,-0.056243896484375,-0.9626922607421875
2024-06-20T17:56:28.091+02:00,4603.645821916667,-0.18328857421875,-0.0712127685546875,-0.96380615234375
2024-06-20T17:56:28.091+02:00,4603.655879916667,-0.20965576171875,-0.072662353515625,-0.9590606689453125
2024-06-20T17:56:28.092+02:00,4603.665936916667,-0.2099761962890625,-0.07171630859375,-0.954681396484375
2024-06-20T17:56:28.092+02:00,4603.675993916667,-0.20623779296875,-0.077301025390625,-0.9530029296875
2024-06-20T17:56:28.092+02:00,4603.686051916667,-0.204315185546875,-0.0828857421875,-0.9557342529296875
2024-06-20T17:56:28.093+02:00,4603.696108916667,-0.21368408203125,-0.082183837890625,-0.96038818359375
2024-06-20T17:56:28.093+02:00,4603.706166916667,-0.2168121337890625,-0.0783233642578125,-0.9592742919921875
2024-06-20T17:56:28.093+02:00,4603.716223916667,-0.2135009765625,-0.0839691162109375,-0.951446533203125
2024-06-20T17:56:28.093+02:00,4603.726281916667,-0.2042999267578125,-0.0868682861328125,-0.947509765625
2024-06-20T17:56:28.094+02:00,4603.736338916667,-0.197967529296875,-0.0847930908203125,-0.952056884765625
2024-06-20T17:56:28.094+02:00,4603.746395916667,-0.2095947265625,-0.0853729248046875,-0.9533843994140625
2024-06-20T17:56:28.095+02:00,4603.756453916667,-0.2111358642578125,-0.0828094482421875,-0.953338623046875
2024-06-20T17:56:28.095+02:00,4603.766510916667,-0.2086029052734375,-0.0804290771484375,-0.9524383544921875
2024-06-20T17:56:28.095+02:00,4603.776568916667,-0.2085723876953125,-0.0798797607421875,-0.947845458984375
2024-06-20T17:56:28.096+02:00,4603.786625916667,-0.2109832763671875,-0.0772857666015625,-0.9506378173828125
2024-06-20T17:56:28.104+02:00,4603.796683916667,-0.211944580078125,-0.0727691650390625,-0.95367431640625
2024-06-20T17:56:28.114+02:00,4603.806740916667,-0.214752197265625,-0.065673828125,-0.9516143798828125
2024-06-20T17:56:28.124+02:00,4603.816797916667,-0.2150421142578125,-0.061859130859375,-0.9554901123046875
2024-06-20T17:56:28.134+02:00,4603.826855916667,-0.2148895263671875,-0.0630340576171875,-0.9568328857421875
2024-06-20T17:56:28.145+02:00,4603.836912916667,-0.2150421142578125,-0.0686187744140625,-0.949981689453125
2024-06-20T17:56:28.154+02:00,4603.846970916667,-0.2164459228515625,-0.0689239501953125,-0.9452056884765625
2024-06-20T17:56:28.164+02:00,4603.857027916667,-0.2138519287109375,-0.0696868896484375,-0.9437255859375
2024-06-20T17:56:28.174+02:00,4603.867085916667,-0.2143707275390625,-0.0662841796875,-0.94317626953125
2024-06-20T17:56:28.185+02:00,4603.877142916667,-0.215667724609375,-0.066009521484375,-0.9432830810546875
2024-06-20T17:56:28.195+02:00,4603.887200916667,-0.2127227783203125,-0.0730438232421875,-0.94525146484375
2024-06-20T17:56:28.205+02:00,4603.897257916667,-0.212158203125,-0.07122802734375,-0.95050048828125
2024-06-20T17:56:28.215+02:00,4603.907314916667,-0.214080810546875,-0.06451416015625,-0.9554595947265625
2024-06-20T17:56:28.225+02:00,4603.917372916667,-0.2139892578125,-0.0608367919921875,-0.95452880859375
2024-06-20T17:56:28.235+02:00,4603.927429916667,-0.2124176025390625,-0.06500244140625,-0.9552001953125
2024-06-20T17:56:28.245+02:00,4603.937487916667,-0.2110443115234375,-0.067474365234375,-0.956939697265625
2024-06-20T17:56:28.255+02:00,4603.947544916667,-0.20654296875,-0.068115234375,-0.95855712890625
2024-06-20T17:56:28.265+02:00,4603.957602916667,-0.2076873779296875,-0.0672760009765625,-0.9590911865234375
2024-06-20T17:56:28.275+02:00,4603.967659916667,-0.210906982421875,-0.067626953125,-0.95709228515625
2024-06-20T17:56:28.285+02:00,4603.977716916667,-0.208984375,-0.0714111328125,-0.955474853515625
2024-06-20T17:56:28.295+02:00,4603.987774916667,-0.20587158203125,-0.0751800537109375,-0.9577178955078125
2024-06-20T17:56:28.305+02:00,4603.997831916667,-0.206756591796875,-0.07427978515625,-0.9583587646484375
2024-06-20T17:56:28.315+02:00,4604.007889916666,-0.2033843994140625,-0.0787353515625,-0.959259033203125
2024-06-20T17:56:28.325+02:00,4604.017946916667,-0.209381103515625,-0.0745391845703125,-0.9662628173828125
2024-06-20T17:56:28.336+02:00,4604.028004916667,-0.2114715576171875,-0.071044921875,-0.9718170166015625
2024-06-20T17:56:28.346+02:00,4604.038061916667,-0.2098236083984375,-0.073577880859375,-0.9762420654296875
2024-06-20T17:56:28.356+02:00,4604.048119916667,-0.2034454345703125,-0.076568603515625,-0.979949951171875
2024-06-20T17:56:28.366+02:00,4604.058176916667,-0.207061767578125,-0.072967529296875,-0.9796142578125
2024-06-20T17:56:28.376+02:00,4604.068233916667,-0.2103271484375,-0.0693511962890625,-0.9752960205078125
2024-06-20T17:56:28.386+02:00,4604.078291916667,-0.1255340576171875,0.00921630859375,-0.993621826171875
2024-06-20T17:56:28.396+02:00,4604.088348916667,-0.2886199951171875,-0.0933380126953125,-0.9748077392578125
2024-06-20T17:56:28.406+02:00,4604.098406916667,-0.2448577880859375,-0.13250732421875,-0.9551239013671875
2024-06-20T17:56:28.416+02:00,4604.108463916667,-0.1871337890625,-0.11175537109375,-0.9669036865234375
2024-06-20T17:56:28.426+02:00,4604.118521916667,-0.222686767578125,-0.070709228515625,-0.977996826171875
2024-06-20T17:56:28.436+02:00,4604.128578916667,-0.2151336669921875,-0.0529632568359375,-0.9758453369140625
2024-06-20T17:56:28.446+02:00,4604.138635916667,-0.208770751953125,-0.0695037841796875,-0.97088623046875
2024-06-20T17:56:28.456+02:00,4604.148693916667,-0.2213134765625,-0.0854034423828125,-0.9675750732421875
2024-06-20T17:56:28.466+02:00,4604.158750916667,-0.2185516357421875,-0.08642578125,-0.9637298583984375
2024-06-20T17:56:28.476+02:00,4604.168808916667,-0.2079315185546875,-0.083251953125,-0.9661102294921875
2024-06-20T17:56:28.486+02:00,4604.178865916667,-0.2113800048828125,-0.075958251953125,-0.9657440185546875
2024-06-20T17:56:28.499+02:00,4604.188923916667,-0.213531494140625,-0.071319580078125,-0.9677886962890625
2024-06-20T17:56:28.509+02:00,4604.198980916667,-0.209564208984375,-0.0657806396484375,-0.96661376953125
2024-06-20T17:56:28.516+02:00,4604.209037916667,-0.2160186767578125,-0.0737457275390625,-0.9603271484375
2024-06-20T17:56:28.527+02:00,4604.219095916667,-0.2191925048828125,-0.0824127197265625,-0.955413818359375
2024-06-20T17:56:28.537+02:00,4604.229152916667,-0.218719482421875,-0.0789642333984375,-0.956268310546875
2024-06-20T17:56:28.547+02:00,4604.239210916667,-0.2169342041015625,-0.0728759765625,-0.961395263671875
2024-06-20T17:56:28.564+02:00,4604.249267916667,-0.213287353515625,-0.072052001953125,-0.9647979736328125
2024-06-20T17:56:28.567+02:00,4604.259325916667,-0.2162017822265625,-0.0667724609375,-0.9679412841796875
2024-06-20T17:56:28.577+02:00,4604.269382916667,-0.2187957763671875,-0.0672760009765625,-0.9679718017578125
2024-06-20T17:56:28.587+02:00,4604.279440916667,-0.211151123046875,-0.0703582763671875,-0.9629974365234375
2024-06-20T17:56:28.597+02:00,4604.289497916667,-0.20245361328125,-0.062530517578125,-0.9646453857421875
2024-06-20T17:56:28.607+02:00,4604.299554916667,-0.216949462890625,-0.061737060546875,-0.96490478515625
2024-06-20T17:56:28.617+02:00,4604.309612916667,-0.23236083984375,-0.076812744140625,-0.957275390625
2024-06-20T17:56:28.627+02:00,4604.319669916666,-0.2115020751953125,-0.080596923828125,-0.9536895751953125
2024-06-20T17:56:28.637+02:00,4604.329727916667,-0.2118377685546875,-0.069366455078125,-0.9611053466796875
2024-06-20T17:56:28.647+02:00,4604.339784916667,-0.2157745361328125,-0.058135986328125,-0.9632568359375
2024-06-20T17:56:28.657+02:00,4604.349842916667,-0.215240478515625,-0.0634918212890625,-0.9625091552734375
2024-06-20T17:56:28.667+02:00,4604.359899916667,-0.213897705078125,-0.071929931640625,-0.9613800048828125
2024-06-20T17:56:28.677+02:00,4604.369956916667,-0.2153778076171875,-0.07208251953125,-0.96002197265625
2024-06-20T17:56:28.687+02:00,4604.380015166667,-0.21661376953125,-0.07073974609375,-0.9547119140625
2024-06-20T17:56:28.697+02:00,4604.390072166667,-0.21624755859375,-0.0699615478515625,-0.953125
2024-06-20T17:56:28.707+02:00,4604.400130166667,-0.216033935546875,-0.0650787353515625,-0.9542083740234375
2024-06-20T17:56:28.717+02:00,4604.410187166667,-0.2170867919921875,-0.0692901611328125,-0.9565277099609375
2024-06-20T17:56:28.728+02:00,4604.420245166667,-0.216888427734375,-0.076812744140625,-0.955535888671875
2024-06-20T17:56:28.738+02:00,4604.430302166667,-0.2149505615234375,-0.0792999267578125,-0.952362060546875
2024-06-20T17:56:28.748+02:00,4604.440360166667,-0.21630859375,-0.0734100341796875,-0.952362060546875
2024-06-20T17:56:28.758+02:00,4604.450417166667,-0.2142486572265625,-0.0704803466796875,-0.9537811279296875
2024-06-20T17:56:28.768+02:00,4604.460474166667,-0.214263916015625,-0.07080078125,-0.9555511474609375
2024-06-20T17:56:28.778+02:00,4604.470532166667,-0.2136077880859375,-0.07476806640625,-0.9566192626953125
2024-06-20T17:56:28.788+02:00,4604.480589166667,-0.2133026123046875,-0.0750885009765625,-0.958160400390625
2024-06-20T17:56:28.798+02:00,4604.490647166667,-0.2151031494140625,-0.0709381103515625,-0.9611663818359375
2024-06-20T17:56:28.808+02:00,4604.500704166667,-0.2171630859375,-0.0660858154296875,-0.9622955322265625
2024-06-20T17:56:28.818+02:00,4604.510762166667,-0.217620849609375,-0.0688934326171875,-0.961212158203125
2024-06-20T17:56:28.828+02:00,4604.520819166667,-0.2147674560546875,-0.070098876953125,-0.958831787109375
2024-06-20T17:56:28.838+02:00,4604.530877166667,-0.21533203125,-0.0675048828125,-0.9654998779296875
2024-06-20T17:56:28.848+02:00,4604.540934166667,-0.218505859375,-0.065643310546875,-0.96844482421875
2024-06-20T17:56:28.858+02:00,4604.550991166667,-0.2144317626953125,-0.0671844482421875,-0.972412109375
2024-06-20T17:56:28.868+02:00,4604.561049166667,-0.2133941650390625,-0.0696258544921875,-0.9669342041015625
2024-06-20T17:56:28.878+02:00,4604.571106166667,-0.2132720947265625,-0.0718841552734375,-0.9617767333984375
2024-06-20T17:56:28.889+02:00,4604.581164166667,-0.213470458984375,-0.0719757080078125,-0.964263916015625
2024-06-20T17:56:28.898+02:00,4604.591221166667,-0.2128448486328125,-0.071258544921875,-0.9629974365234375
2024-06-20T17:56:28.909+02:00,4604.601279166667,-0.213165283203125,-0.0709381103515625,-0.964019775390625
2024-06-20T17:56:28.919+02:00,4604.611336166667,-0.2154388427734375,-0.0684814453125,-0.9669647216796875
2024-06-20T17:56:28.929+02:00,4604.621394166667,-0.2158355712890625,-0.0692291259765625,-0.9646453857421875
2024-06-20T17:56:28.939+02:00,4604.631451166667,-0.212799072265625,-0.0697021484375,-0.95867919921875
2024-06-20T17:56:28.949+02:00,4604.641508166667,-0.210601806640625,-0.0726776123046875,-0.9537506103515625
2024-06-20T17:56:28.959+02:00,4604.651566166667,-0.2125244140625,-0.075408935546875,-0.9540252685546875
2024-06-20T17:56:28.969+02:00,4604.661623166667,-0.21527099609375,-0.072265625,-0.9554290771484375
2024-06-20T17:56:28.979+02:00,4604.671681166667,-0.217376708984375,-0.069305419921875,-0.95953369140625
2024-06-20T17:56:28.989+02:00,4604.681738166667,-0.2159423828125,-0.0717010498046875,-0.9574127197265625
2024-06-20T17:56:29.003+02:00,4604.691796166667,-0.2116241455078125,-0.07012939453125,-0.951995849609375
2024-06-20T17:56:29.010+02:00,4604.701853166667,-0.201629638671875,-0.0631561279296875,-0.948974609375
2024-06-20T17:56:29.019+02:00,4604.711910166667,-0.220550537109375,-0.084808349609375,-0.947113037109375
2024-06-20T17:56:29.029+02:00,4604.721968166667,-0.20648193359375,-0.0764007568359375,-0.951080322265625
2024-06-20T17:56:29.039+02:00,4604.732025166667,-0.217803955078125,-0.061676025390625,-0.9622802734375
2024-06-20T17:56:29.049+02:00,4604.742083166667,-0.231353759765625,-0.0594635009765625,-0.968109130859375
2024-06-20T17:56:29.059+02:00,4604.752140166667,-0.216644287109375,-0.0603790283203125,-0.96685791015625
2024-06-20T17:56:29.070+02:00,4604.762198166667,-0.222808837890625,-0.0664825439453125,-0.9665374755859375
2024-06-20T17:56:29.080+02:00,4604.772255166667,-0.2247772216796875,-0.0652923583984375,-0.9643402099609375
2024-06-20T17:56:29.090+02:00,4604.782313166667,-0.223358154296875,-0.0672454833984375,-0.95941162109375
2024-06-20T17:56:29.100+02:00,4604.792370166667,-0.222442626953125,-0.065643310546875,-0.96331787109375
2024-06-20T17:56:29.110+02:00,4604.802427166667,-0.221710205078125,-0.0558929443359375,-0.96270751953125
2024-06-20T17:56:29.120+02:00,4604.812485166667,-0.218658447265625,-0.0563507080078125,-0.9636993408203125
2024-06-20T17:56:29.130+02:00,4604.822542166667,-0.2154388427734375,-0.068817138671875,-0.9581756591796875
2024-06-20T17:56:29.140+02:00,4604.832600166667,-0.216522216796875,-0.076080322265625,-0.953033447265625
2024-06-20T17:56:29.150+02:00,4604.842657166667,-0.21923828125,-0.073699951171875,-0.9508056640625
2024-06-20T17:56:29.160+02:00,4604.852715166667,-0.2207183837890625,-0.071746826171875,-0.956939697265625
2024-06-20T17:56:29.170+02:00,4604.862772166667,-0.2199249267578125,-0.0624847412109375,-0.9618682861328125
2024-06-20T17:56:29.180+02:00,4604.872829166667,-0.22210693359375,-0.060760498046875,-0.9624176025390625
2024-06-20T17:56:29.190+02:00,4604.882887166667,-0.22314453125,-0.0699462890625,-0.9580535888671875
2024-06-20T17:56:29.200+02:00,4604.892944166667,-0.22247314453125,-0.0754241943359375,-0.957275390625
2024-06-20T17:56:29.210+02:00,4604.903002166667,-0.220428466796875,-0.073974609375,-0.959320068359375
2024-06-20T17:56:29.220+02:00,4604.913059166667,-0.2224578857421875,-0.0654296875,-0.9570770263671875
2024-06-20T17:56:29.230+02:00,4604.923117166667,-0.2213897705078125,-0.060546875,-0.961090087890625
2024-06-20T17:56:29.241+02:00,4604.933174166667,-0.219207763671875,-0.062896728515625,-0.9606475830078125
2024-06-20T17:56:29.251+02:00,4604.943232166667,-0.216705322265625,-0.066436767578125,-0.9618682861328125
2024-06-20T17:56:29.261+02:00,4604.953289166667,-0.218017578125,-0.0605010986328125,-0.9622802734375
2024-06-20T17:56:29.271+02:00,4604.963346166667,-0.21728515625,-0.061431884765625,-0.9557647705078125
2024-06-20T17:56:29.281+02:00,4604.973404166667,-0.21636962890625,-0.0667572021484375,-0.9497528076171875
2024-06-20T17:56:29.291+02:00,4604.983461166667,-0.2128143310546875,-0.0704498291015625,-0.9531097412109375
2024-06-20T17:56:29.301+02:00,4604.993519166667,-0.2145843505859375,-0.069671630859375,-0.961090087890625
2024-06-20T17:56:29.311+02:00,4605.003576166667,-0.21435546875,-0.0636138916015625,-0.9663543701171875
2024-06-20T17:56:29.321+02:00,4605.013634166667,-0.2160491943359375,-0.0637664794921875,-0.967041015625
2024-06-20T17:56:29.331+02:00,4605.023691166667,-0.2177886962890625,-0.0728912353515625,-0.9683074951171875
2024-06-20T17:56:29.341+02:00,4605.033749166667,-0.21514892578125,-0.0767364501953125,-0.9628143310546875
2024-06-20T17:56:29.351+02:00,4605.043806166667,-0.2145233154296875,-0.07769775390625,-0.962310791015625
2024-06-20T17:56:29.361+02:00,4605.053863166667,-0.217864990234375,-0.0687103271484375,-0.9679718017578125
2024-06-20T17:56:29.371+02:00,4605.063921166667,-0.2154083251953125,-0.06280517578125,-0.9700775146484375
2024-06-20T17:56:29.381+02:00,4605.073978166667,-0.215789794921875,-0.0695343017578125,-0.9667510986328125
2024-06-20T17:56:29.391+02:00,4605.084036166667,-0.2143707275390625,-0.0823516845703125,-0.9645538330078125
2024-06-20T17:56:29.401+02:00,4605.094093166667,-0.214141845703125,-0.0911102294921875,-0.9654083251953125
2024-06-20T17:56:29.412+02:00,4605.104151166667,-0.2161102294921875,-0.087799072265625,-0.966766357421875
2024-06-20T17:56:29.422+02:00,4605.114208166667,-0.2184295654296875,-0.080230712890625,-0.9736785888671875
2024-06-20T17:56:29.432+02:00,4605.124266166667,-0.2213897705078125,-0.07733154296875,-0.98345947265625
2024-06-20T17:56:29.442+02:00,4605.134323166667,-0.226409912109375,-0.0725250244140625,-0.9829864501953125
2024-06-20T17:56:29.452+02:00,4605.144380166667,-0.2415924072265625,-0.074249267578125,-0.9833526611328125
2024-06-20T17:56:29.462+02:00,4605.154438166667,-0.233367919921875,-0.08978271484375,-0.9784698486328125
2024-06-20T17:56:29.472+02:00,4605.164495166667,-0.21881103515625,-0.0935821533203125,-0.9752655029296875
2024-06-20T17:56:29.482+02:00,4605.174553166667,-0.2294158935546875,-0.079345703125,-0.960784912109375
2024-06-20T17:56:29.492+02:00,4605.184610166667,-0.2327117919921875,-0.07525634765625,-0.9591064453125
2024-06-20T17:56:29.503+02:00,4605.194668166667,-0.2290802001953125,-0.0716400146484375,-0.955963134765625
2024-06-20T17:56:29.512+02:00,4605.204725166667,-0.230438232421875,-0.0664520263671875,-0.9529571533203125
2024-06-20T17:56:29.522+02:00,4605.214783166667,-0.2288665771484375,-0.067413330078125,-0.9517364501953125
2024-06-20T17:56:29.532+02:00,4605.224840166667,-0.2271728515625,-0.0669708251953125,-0.955474853515625
2024-06-20T17:56:29.542+02:00,4605.234897166667,-0.226776123046875,-0.058563232421875,-0.95751953125
2024-06-20T17:56:29.552+02:00,4605.244955166667,-0.2296295166015625,-0.0555419921875,-0.9507293701171875
2024-06-20T17:56:29.562+02:00,4605.255012166667,-0.2304840087890625,-0.0532684326171875,-0.949432373046875
2024-06-20T17:56:29.573+02:00,4605.265070166667,-0.2306060791015625,-0.049285888671875,-0.95330810546875
2024-06-20T17:56:29.582+02:00,4605.275127166667,-0.231475830078125,-0.0447845458984375,-0.9572296142578125
2024-06-20T17:56:29.593+02:00,4605.285185166667,-0.229827880859375,-0.040740966796875,-0.9577484130859375
2024-06-20T17:56:29.603+02:00,4605.295242166667,-0.2243499755859375,-0.0409088134765625,-0.95489501953125
2024-06-20T17:56:29.613+02:00,4605.305299166667,-0.217437744140625,-0.0379486083984375,-0.942535400390625
2024-06-20T17:56:29.623+02:00,4605.315357166667,-0.21124267578125,-0.040130615234375,-0.9308624267578125
2024-06-20T17:56:29.633+02:00,4605.325414166667,-0.2100982666015625,-0.037445068359375,-0.9320220947265625
2024-06-20T17:56:29.643+02:00,4605.335472166667,-0.2108612060546875,-0.0329132080078125,-0.9362945556640625
2024-06-20T17:56:29.653+02:00,4605.345529166667,-0.2089385986328125,-0.035888671875,-0.941680908203125
2024-06-20T17:56:29.663+02:00,4605.355587166667,-0.204864501953125,-0.0331878662109375,-0.9429473876953125
2024-06-20T17:56:29.673+02:00,4605.365644166667,-0.20587158203125,-0.0231781005859375,-0.9419403076171875
2024-06-20T17:56:29.683+02:00,4605.375702166667,-0.208740234375,-0.0088653564453125,-0.94451904296875
2024-06-20T17:56:29.693+02:00,4605.38575925,-0.2141265869140625,-0.001556396484375,-0.9431915283203125
2024-06-20T17:56:29.703+02:00,4605.39581625,-0.2181243896484375,-0.0157012939453125,-0.9452362060546875
2024-06-20T17:56:29.714+02:00,4605.40587425,-0.218353271484375,-0.0373382568359375,-0.949920654296875
2024-06-20T17:56:29.723+02:00,4605.415931250001,-0.219085693359375,-0.049285888671875,-0.9502410888671875
2024-06-20T17:56:29.734+02:00,4605.42598925,-0.2230377197265625,-0.0521240234375,-0.9517974853515625
2024-06-20T17:56:29.744+02:00,4605.43604625,-0.225006103515625,-0.045074462890625,-0.953094482421875
2024-06-20T17:56:29.754+02:00,4605.446104250001,-0.22515869140625,-0.035491943359375,-0.948577880859375
2024-06-20T17:56:29.764+02:00,4605.45616125,-0.2242279052734375,-0.043212890625,-0.945556640625
2024-06-20T17:56:29.774+02:00,4605.46621925,-0.21954345703125,-0.052490234375,-0.9391937255859375
2024-06-20T17:56:29.784+02:00,4605.47627625,-0.2199554443359375,-0.05950927734375,-0.926849365234375
2024-06-20T17:56:29.794+02:00,4605.48633325,-0.21905517578125,-0.0544586181640625,-0.9253997802734375
2024-06-20T17:56:29.804+02:00,4605.496391250001,-0.2188568115234375,-0.038970947265625,-0.927886962890625
2024-06-20T17:56:29.814+02:00,4605.50644825,-0.222076416015625,-0.0281829833984375,-0.9314727783203125
2024-06-20T17:56:29.824+02:00,4605.51650625,-0.2166900634765625,-0.0251922607421875,-0.9351043701171875
2024-06-20T17:56:29.834+02:00,4605.52656325,-0.216461181640625,-0.0203704833984375,-0.92913818359375
2024-06-20T17:56:29.844+02:00,4605.53662125,-0.222137451171875,-0.0160369873046875,-0.9202117919921875
2024-06-20T17:56:29.854+02:00,4605.546678250001,-0.2253570556640625,-0.0079803466796875,-0.9121246337890625
2024-06-20T17:56:29.864+02:00,4605.556736250001,-0.218536376953125,0.0090789794921875,-0.9106903076171875
2024-06-20T17:56:29.874+02:00,4605.56679325,-0.2067108154296875,0.0308685302734375,-0.9127655029296875
2024-06-20T17:56:29.884+02:00,4605.57685025,-0.2037353515625,0.03955078125,-0.9287261962890625
2024-06-20T17:56:29.894+02:00,4605.58690825,-0.2015228271484375,0.0370330810546875,-0.943450927734375
2024-06-20T17:56:29.904+02:00,4605.596965250001,-0.199005126953125,0.05010986328125,-0.9541473388671875
2024-06-20T17:56:29.915+02:00,4605.607023250001,-0.207916259765625,0.0628509521484375,-0.9514007568359375
2024-06-20T17:56:29.925+02:00,4605.61708025,-0.2169647216796875,0.0600738525390625,-0.94781494140625
2024-06-20T17:56:29.935+02:00,4605.62713825,-0.2153167724609375,0.059173583984375,-0.9389801025390625
2024-06-20T17:56:29.945+02:00,4605.63719525,-0.2154998779296875,0.067291259765625,-0.926116943359375
2024-06-20T17:56:29.955+02:00,4605.64725225,-0.221771240234375,0.066375732421875,-0.915069580078125
2024-06-20T17:56:29.965+02:00,4605.657310250001,-0.2248077392578125,0.0679931640625,-0.9065704345703125
2024-06-20T17:56:29.975+02:00,4605.66736725,-0.2345428466796875,0.0772857666015625,-0.9038543701171875
2024-06-20T17:56:29.985+02:00,4605.67742525,-0.2481536865234375,0.0828857421875,-0.9061126708984375
2024-06-20T17:56:29.995+02:00,4605.68748225,-0.2591094970703125,0.0904083251953125,-0.900146484375
2024-06-20T17:56:30.010+02:00,4605.69754025,-0.2693328857421875,0.085113525390625,-0.88970947265625
2024-06-20T17:56:30.016+02:00,4605.707597250001,-0.2743072509765625,0.0752716064453125,-0.8743133544921875
2024-06-20T17:56:30.025+02:00,4605.71765525,-0.274322509765625,0.0801544189453125,-0.846282958984375
2024-06-20T17:56:30.035+02:00,4605.72771225,-0.2750244140625,0.0860595703125,-0.827392578125
2024-06-20T17:56:30.046+02:00,4605.73776925,-0.269073486328125,0.08135986328125,-0.8233489990234375
2024-06-20T17:56:30.056+02:00,4605.74782725,-0.256927490234375,0.0679168701171875,-0.8399200439453125
2024-06-20T17:56:30.065+02:00,4605.757884250001,-0.252044677734375,0.047271728515625,-0.863800048828125
2024-06-20T17:56:30.076+02:00,4605.76794225,-0.25543212890625,0.0396881103515625,-0.8710479736328125
2024-06-20T17:56:30.086+02:00,4605.77799925,-0.2570343017578125,0.04876708984375,-0.871551513671875
2024-06-20T17:56:30.096+02:00,4605.78805725,-0.253662109375,0.0614166259765625,-0.8797149658203125
2024-06-20T17:56:30.106+02:00,4605.79811425,-0.25299072265625,0.057281494140625,-0.8913116455078125
2024-06-20T17:56:30.116+02:00,4605.80817225,-0.2596435546875,0.0532379150390625,-0.9260406494140625
2024-06-20T17:56:30.126+02:00,4605.818229250001,-0.261505126953125,0.052154541015625,-0.945159912109375
2024-06-20T17:56:30.136+02:00,4605.82828625,-0.2819061279296875,0.055023193359375,-0.9454498291015625
2024-06-20T17:56:30.146+02:00,4605.83834425,-0.3175048828125,0.0942840576171875,-0.988677978515625
2024-06-20T17:56:30.156+02:00,4605.84840125,-0.315155029296875,0.1218109130859375,-1.039291381835938
2024-06-20T17:56:30.166+02:00,4605.85845925,-0.306671142578125,0.1460723876953125,-1.0911865234375
2024-06-20T17:56:30.176+02:00,4605.868516250001,-0.2848358154296875,0.1828765869140625,-1.125686645507812
2024-06-20T17:56:30.187+02:00,4605.87857425,-0.2674713134765625,0.2339630126953125,-1.130157470703125
2024-06-20T17:56:30.196+02:00,4605.88863125,-0.26397705078125,0.296478271484375,-1.1300048828125
2024-06-20T17:56:30.206+02:00,4605.898689250001,-0.247528076171875,0.3243560791015625,-1.10955810546875
2024-06-20T17:56:30.216+02:00,4605.90874625,-0.23748779296875,0.350128173828125,-1.080520629882812
2024-06-20T17:56:30.226+02:00,4605.918803250001,-0.2405853271484375,0.3904571533203125,-1.059677124023438
2024-06-20T17:56:30.237+02:00,4605.92886125,-0.2410736083984375,0.4226837158203125,-1.048629760742188
2024-06-20T17:56:30.247+02:00,4605.93891825,-0.22943115234375,0.4667205810546875,-1.039703369140625
2024-06-20T17:56:30.257+02:00,4605.948976250001,-0.2174835205078125,0.5171661376953125,-1.026718139648438
2024-06-20T17:56:30.267+02:00,4605.95903325,-0.2134246826171875,0.5607452392578125,-0.9932098388671875
2024-06-20T17:56:30.277+02:00,4605.96909125,-0.2126007080078125,0.591644287109375,-0.94451904296875
2024-06-20T17:56:30.287+02:00,4605.97914825,-0.2075653076171875,0.605743408203125,-0.8995208740234375
2024-06-20T17:56:30.297+02:00,4605.98920625,-0.1969146728515625,0.625946044921875,-0.8628997802734375
2024-06-20T17:56:30.307+02:00,4605.999263250001,-0.192169189453125,0.653228759765625,-0.8326873779296875
2024-06-20T17:56:30.317+02:00,4606.00932025,-0.1903839111328125,0.6663970947265625,-0.8123626708984375
2024-06-20T17:56:30.327+02:00,4606.01937825,-0.1849822998046875,0.6635284423828125,-0.7924346923828125
2024-06-20T17:56:30.337+02:00,4606.02943525,-0.1776123046875,0.6456451416015625,-0.770538330078125
2024-06-20T17:56:30.347+02:00,4606.03949325,-0.1742095947265625,0.624114990234375,-0.741119384765625
2024-06-20T17:56:30.357+02:00,4606.049550250001,-0.1658935546875,0.6155548095703125,-0.7048797607421875
2024-06-20T17:56:30.367+02:00,4606.059608250001,-0.1689910888671875,0.6138916015625,-0.675537109375
2024-06-20T17:56:30.377+02:00,4606.06966525,-0.1645050048828125,0.61810302734375,-0.651641845703125
2024-06-20T17:56:30.388+02:00,4606.07972325,-0.162261962890625,0.6287994384765625,-0.650970458984375
2024-06-20T17:56:30.399+02:00,4606.08978025,-0.160980224609375,0.6331024169921875,-0.6635589599609375
2024-06-20T17:56:30.409+02:00,4606.09983725,-0.15423583984375,0.636993408203125,-0.66558837890625
2024-06-20T17:56:30.417+02:00,4606.109895250001,-0.157135009765625,0.6546630859375,-0.666748046875
2024-06-20T17:56:30.428+02:00,4606.11995225,-0.1649322509765625,0.6590118408203125,-0.6597137451171875
2024-06-20T17:56:30.438+02:00,4606.13001025,-0.170684814453125,0.6587371826171875,-0.6483612060546875
2024-06-20T17:56:30.447+02:00,4606.14006725,-0.16827392578125,0.66387939453125,-0.6287689208984375
2024-06-20T17:56:30.458+02:00,4606.15012525,-0.1630096435546875,0.6739044189453125,-0.629547119140625
2024-06-20T17:56:30.468+02:00,4606.160182250001,-0.157562255859375,0.6696319580078125,-0.6487579345703125
2024-06-20T17:56:30.478+02:00,4606.17024025,-0.1493682861328125,0.6612091064453125,-0.6727142333984375
2024-06-20T17:56:30.488+02:00,4606.18029725,-0.136810302734375,0.65130615234375,-0.679290771484375
2024-06-20T17:56:30.499+02:00,4606.19035425,-0.1337890625,0.6437225341796875,-0.67425537109375
2024-06-20T17:56:30.508+02:00,4606.20041225,-0.1346435546875,0.6531219482421875,-0.6672515869140625
2024-06-20T17:56:30.519+02:00,4606.210469250001,-0.1337127685546875,0.6630706787109375,-0.6587677001953125
2024-06-20T17:56:30.528+02:00,4606.22052725,-0.13043212890625,0.670867919921875,-0.6527557373046875
2024-06-20T17:56:30.538+02:00,4606.23058425,-0.126312255859375,0.6757354736328125,-0.6588134765625
2024-06-20T17:56:30.548+02:00,4606.24064225,-0.1202545166015625,0.672515869140625,-0.6658172607421875
2024-06-20T17:56:30.558+02:00,4606.25069925,-0.118560791015625,0.6681060791015625,-0.675201416015625
2024-06-20T17:56:30.568+02:00,4606.26075725,-0.1157379150390625,0.6728973388671875,-0.669891357421875
2024-06-20T17:56:30.578+02:00,4606.270814250001,-0.118316650390625,0.67901611328125,-0.674652099609375
2024-06-20T17:56:30.589+02:00,4606.28087125,-0.1215667724609375,0.6788482666015625,-0.6964263916015625
2024-06-20T17:56:30.599+02:00,4606.29092925,-0.1172027587890625,0.6772308349609375,-0.7234039306640625
2024-06-20T17:56:30.609+02:00,4606.30098625,-0.11328125,0.66900634765625,-0.7293243408203125
2024-06-20T17:56:30.619+02:00,4606.31104425,-0.116607666015625,0.67822265625,-0.7319488525390625
2024-06-20T17:56:30.629+02:00,4606.321101250001,-0.127655029296875,0.6786651611328125,-0.74139404296875
2024-06-20T17:56:30.639+02:00,4606.33115925,-0.1312408447265625,0.6795654296875,-0.7556915283203125
2024-06-20T17:56:30.649+02:00,4606.34121625,-0.1294403076171875,0.67474365234375,-0.755218505859375
2024-06-20T17:56:30.659+02:00,4606.351274250001,-0.1346588134765625,0.6697540283203125,-0.760040283203125
2024-06-20T17:56:30.669+02:00,4606.36133125,-0.1358184814453125,0.668975830078125,-0.766357421875
2024-06-20T17:56:30.679+02:00,4606.371388250001,-0.138214111328125,0.672821044921875,-0.7777252197265625
2024-06-20T17:56:30.689+02:00,4606.381446125,-0.1382904052734375,0.670654296875,-0.7928924560546875
2024-06-20T17:56:30.700+02:00,4606.391503125,-0.1458282470703125,0.6555023193359375,-0.7982635498046875
2024-06-20T17:56:30.709+02:00,4606.401561125001,-0.146331787109375,0.6460113525390625,-0.79736328125
2024-06-20T17:56:30.719+02:00,4606.411618125,-0.1461181640625,0.646331787109375,-0.8045654296875
2024-06-20T17:56:30.729+02:00,4606.421676125,-0.1518707275390625,0.6476287841796875,-0.8010101318359375
2024-06-20T17:56:30.739+02:00,4606.431733125,-0.1605682373046875,0.6523284912109375,-0.8007049560546875
2024-06-20T17:56:30.749+02:00,4606.441791125,-0.164825439453125,0.656280517578125,-0.8074951171875
2024-06-20T17:56:30.760+02:00,4606.451848125001,-0.1615447998046875,0.65057373046875,-0.810638427734375
2024-06-20T17:56:30.769+02:00,4606.461905125,-0.168365478515625,0.6410675048828125,-0.82745361328125
2024-06-20T17:56:30.780+02:00,4606.471963125,-0.1739654541015625,0.61962890625,-0.8429718017578125
2024-06-20T17:56:30.790+02:00,4606.482020125,-0.178955078125,0.607147216796875,-0.8392791748046875
2024-06-20T17:56:30.800+02:00,4606.492078125,-0.1826171875,0.6114044189453125,-0.8390655517578125
2024-06-20T17:56:30.810+02:00,4606.502135125001,-0.1815643310546875,0.6155548095703125,-0.8320159912109375
2024-06-20T17:56:30.820+02:00,4606.512193125001,-0.181793212890625,0.61907958984375,-0.833343505859375
2024-06-20T17:56:30.830+02:00,4606.522250125,-0.1883697509765625,0.6097564697265625,-0.8511962890625
2024-06-20T17:56:30.840+02:00,4606.532308125,-0.1917877197265625,0.592071533203125,-0.856842041015625
2024-06-20T17:56:30.850+02:00,4606.542365125,-0.1930999755859375,0.5831298828125,-0.8585968017578125
2024-06-20T17:56:30.860+02:00,4606.552422125001,-0.19873046875,0.5765533447265625,-0.8609466552734375
2024-06-20T17:56:30.870+02:00,4606.562480125001,-0.2012786865234375,0.563262939453125,-0.8718719482421875
2024-06-20T17:56:30.880+02:00,4606.572537125,-0.1994476318359375,0.5434417724609375,-0.89801025390625
2024-06-20T17:56:30.890+02:00,4606.582595125,-0.2042236328125,0.5327301025390625,-0.917083740234375
2024-06-20T17:56:30.900+02:00,4606.592652125,-0.208892822265625,0.5308380126953125,-0.920745849609375
2024-06-20T17:56:30.910+02:00,4606.602710125,-0.2147674560546875,0.546630859375,-0.904449462890625
2024-06-20T17:56:30.920+02:00,4606.612767125001,-0.2216339111328125,0.569244384765625,-0.88787841796875
2024-06-20T17:56:30.930+02:00,4606.622825125,-0.2126007080078125,0.5771026611328125,-0.875457763671875
2024-06-20T17:56:30.940+02:00,4606.632882125,-0.2048797607421875,0.5712127685546875,-0.8839111328125
2024-06-20T17:56:30.951+02:00,4606.642939125,-0.19842529296875,0.5575408935546875,-0.8812713623046875
2024-06-20T17:56:30.962+02:00,4606.652997125,-0.188720703125,0.541717529296875,-0.8590240478515625
2024-06-20T17:56:30.971+02:00,4606.663054125001,-0.2030029296875,0.5356292724609375,-0.8461151123046875
2024-06-20T17:56:30.981+02:00,4606.673112125,-0.220367431640625,0.5505523681640625,-0.836273193359375
2024-06-20T17:56:30.991+02:00,4606.683169125,-0.2165374755859375,0.6092529296875,-0.8321685791015625
2024-06-20T17:56:31.001+02:00,4606.693227125001,-0.2137603759765625,0.700469970703125,-0.8341064453125
2024-06-20T17:56:31.012+02:00,4606.703284125,-0.19879150390625,0.7710418701171875,-0.838897705078125
2024-06-20T17:56:31.021+02:00,4606.713342125,-0.1697540283203125,0.801544189453125,-0.831878662109375
2024-06-20T17:56:31.031+02:00,4606.723399125,-0.1471405029296875,0.8014068603515625,-0.7926483154296875
2024-06-20T17:56:31.041+02:00,4606.733457125,-0.146636962890625,0.7914886474609375,-0.743499755859375
2024-06-20T17:56:31.051+02:00,4606.743514125001,-0.1509246826171875,0.7861175537109375,-0.704925537109375
2024-06-20T17:56:31.061+02:00,4606.753572125001,-0.1348419189453125,0.807220458984375,-0.6715087890625
2024-06-20T17:56:31.071+02:00,4606.763629125,-0.1084747314453125,0.8363800048828125,-0.6481781005859375
2024-06-20T17:56:31.081+02:00,4606.773686125,-0.093963623046875,0.8790435791015625,-0.6320953369140625
2024-06-20T17:56:31.091+02:00,4606.783744125,-0.083160400390625,0.9645538330078125,-0.5916290283203125
2024-06-20T17:56:31.101+02:00,4606.793801125,-0.0923919677734375,1.050521850585938,-0.5623626708984375
2024-06-20T17:56:31.112+02:00,4606.803859125001,-0.0678558349609375,1.067703247070312,-0.54437255859375
2024-06-20T17:56:31.121+02:00,4606.813916125,-0.046661376953125,1.033782958984375,-0.5486907958984375
2024-06-20T17:56:31.132+02:00,4606.823974125,-0.025634765625,0.98846435546875,-0.5422210693359375
2024-06-20T17:56:31.142+02:00,4606.834031125,-0.0029144287109375,0.9343414306640625,-0.5139923095703125
2024-06-20T17:56:31.152+02:00,4606.844089125,-0.000885009765625,0.929412841796875,-0.44866943359375
2024-06-20T17:56:31.162+02:00,4606.854146125001,-0.0020904541015625,0.956512451171875,-0.3532867431640625
2024-06-20T17:56:31.172+02:00,4606.864203125,0.010955810546875,1.01092529296875,-0.2867279052734375
2024-06-20T17:56:31.182+02:00,4606.874261125,0.0306243896484375,1.031387329101562,-0.2472686767578125
2024-06-20T17:56:31.192+02:00,4606.884318125,0.054931640625,1.007415771484375,-0.2466888427734375
2024-06-20T17:56:31.202+02:00,4606.894376125,0.0773773193359375,0.9798736572265625,-0.2103118896484375
2024-06-20T17:56:31.212+02:00,4606.904433125001,0.0570831298828125,0.9558258056640625,-0.212646484375
2024-06-20T17:56:31.222+02:00,4606.914491125,0.0489654541015625,0.956817626953125,-0.184722900390625
2024-06-20T17:56:31.232+02:00,4606.924548125,0.06292724609375,0.9267730712890625,-0.237335205078125
2024-06-20T17:56:31.242+02:00,4606.934606125,0.073638916015625,0.949310302734375,-0.17230224609375
2024-06-20T17:56:31.252+02:00,4606.944663125,0.081390380859375,0.9444580078125,-0.1592864990234375
2024-06-20T17:56:31.262+02:00,4606.954720125001,0.0884246826171875,0.9477386474609375,-0.1255035400390625
2024-06-20T17:56:31.272+02:00,4606.964778125001,0.106414794921875,0.9400177001953125,-0.082733154296875
2024-06-20T17:56:31.282+02:00,4606.974835125,0.1348876953125,0.92071533203125,-0.036895751953125
2024-06-20T17:56:31.292+02:00,4606.984893125,0.15399169921875,0.9095458984375,0.0303955078125
2024-06-20T17:56:31.302+02:00,4606.994950125,0.14630126953125,0.9005279541015625,0.0713958740234375
2024-06-20T17:56:31.312+02:00,4607.005008125,0.13458251953125,0.8906097412109375,0.065887451171875
2024-06-20T17:56:31.323+02:00,4607.015065125001,0.141265869140625,0.9147186279296875,0.0397186279296875
2024-06-20T17:56:31.333+02:00,4607.025123125,0.15277099609375,0.9383392333984375,0.0042877197265625
2024-06-20T17:56:31.343+02:00,4607.035180125,0.15985107421875,0.9478302001953125,-0.0009765625
2024-06-20T17:56:31.353+02:00,4607.045238125001,0.1856842041015625,0.9465484619140625,0.0433349609375
2024-06-20T17:56:31.363+02:00,4607.055295125,0.20196533203125,0.9264068603515625,0.1086883544921875
2024-06-20T17:56:31.373+02:00,4607.065352125001,0.2040863037109375,0.9019317626953125,0.1362457275390625
2024-06-20T17:56:31.383+02:00,4607.075410125,0.2142486572265625,0.8903350830078125,0.1571044921875
2024-06-20T17:56:31.393+02:00,4607.085467125,0.220794677734375,0.8616485595703125,0.163543701171875
2024-06-20T17:56:31.403+02:00,4607.095525125001,0.230560302734375,0.82080078125,0.167327880859375
2024-06-20T17:56:31.413+02:00,4607.105582125,0.2428436279296875,0.816680908203125,0.1719970703125
2024-06-20T17:56:31.423+02:00,4607.115640125,0.2550506591796875,0.8540496826171875,0.1998291015625
2024-06-20T17:56:31.433+02:00,4607.125697125,0.2763824462890625,0.895111083984375,0.2239990234375
2024-06-20T17:56:31.443+02:00,4607.135755125,0.2910003662109375,0.912017822265625,0.2370452880859375
2024-06-20T17:56:31.453+02:00,4607.145812125001,0.303192138671875,0.8900299072265625,0.257568359375
2024-06-20T17:56:31.463+02:00,4607.155870125001,0.320159912109375,0.840576171875,0.3054962158203125
2024-06-20T17:56:31.473+02:00,4607.165927125,0.32635498046875,0.826507568359375,0.3515625
2024-06-20T17:56:31.484+02:00,4607.175984125,0.3346405029296875,0.8427276611328125,0.36566162109375
2024-06-20T17:56:31.494+02:00,4607.186042125,0.359039306640625,0.88336181640625,0.3949127197265625
2024-06-20T17:56:31.504+02:00,4607.196099125001,0.3739166259765625,0.886993408203125,0.4386444091796875
2024-06-20T17:56:31.514+02:00,4607.206157125001,0.3841705322265625,0.8675079345703125,0.5017242431640625
2024-06-20T17:56:31.524+02:00,4607.216214125,0.4099578857421875,0.8737640380859375,0.56353759765625
2024-06-20T17:56:31.534+02:00,4607.226272125,0.421600341796875,0.8802032470703125,0.61865234375
2024-06-20T17:56:31.544+02:00,4607.236329125,0.428558349609375,0.88818359375,0.6493072509765625
2024-06-20T17:56:31.554+02:00,4607.246387125,0.423614501953125,0.886260986328125,0.67608642578125
2024-06-20T17:56:31.564+02:00,4607.256444125001,0.409515380859375,0.8499755859375,0.7220916748046875
2024-06-20T17:56:31.574+02:00,4607.266502125,0.405548095703125,0.8437652587890625,0.8278656005859375
2024-06-20T17:56:31.584+02:00,4607.276559125,0.4026641845703125,0.83892822265625,0.9641571044921875
2024-06-20T17:56:31.594+02:00,4607.286616125,0.3906402587890625,0.8587188720703125,1.067520141601562
2024-06-20T17:56:31.604+02:00,4607.296674125,0.3751068115234375,0.8975830078125,1.188064575195312
2024-06-20T17:56:31.615+02:00,4607.306731125001,0.350555419921875,0.8968505859375,1.227737426757812
2024-06-20T17:56:31.624+02:00,4607.316789125,0.2987823486328125,0.9121246337890625,1.268142700195312
2024-06-20T17:56:31.634+02:00,4607.326846125,0.2635955810546875,0.9096527099609375,1.343658447265625
2024-06-20T17:56:31.644+02:00,4607.336904125001,0.2877655029296875,0.934295654296875,1.457427978515625
2024-06-20T17:56:31.655+02:00,4607.346961125,0.2808685302734375,0.9943389892578125,1.593780517578125
2024-06-20T17:56:31.665+02:00,4607.357019125,0.2190093994140625,1.06207275390625,1.660934448242188
2024-06-20T17:56:31.675+02:00,4607.367076125,0.132232666015625,1.151412963867188,1.71343994140625
2024-06-20T17:56:31.685+02:00,4607.377134125,0.0754547119140625,1.1925048828125,1.696792602539062
2024-06-20T17:56:31.695+02:00,4607.387191375,-0.013092041015625,1.210723876953125,1.605422973632812
2024-06-20T17:56:31.705+02:00,4607.397248375,-0.1343231201171875,1.265655517578125,1.439620971679688
2024-06-20T17:56:31.715+02:00,4607.407306375,-0.270538330078125,1.363906860351562,1.342498779296875
2024-06-20T17:56:31.736+02:00,4607.417363375001,-5.626678466796875,4.57177734375,-13.35507202148438
2024-06-20T17:56:31.737+02:00,4607.427421375,-4.782546997070312,2.587936401367188,-8.53363037109375
2024-06-20T17:56:31.745+02:00,4607.437478375,-2.31597900390625,0.2800750732421875,5.43115234375
2024-06-20T17:56:31.755+02:00,4607.447536375001,2.065933227539062,0.1017303466796875,2.962539672851562
2024-06-20T17:56:31.765+02:00,4607.457593375,2.8758544921875,0.1897430419921875,-0.1763458251953125
2024-06-20T17:56:31.775+02:00,4607.467651375,-0.021881103515625,1.788848876953125,-0.8400421142578125
2024-06-20T17:56:31.785+02:00,4607.477708375,-0.7544403076171875,2.095550537109375,-0.2120208740234375
2024-06-20T17:56:31.795+02:00,4607.487766375,0.396392822265625,1.323898315429688,-0.7514190673828125
2024-06-20T17:56:31.805+02:00,4607.497823375,0.7353363037109375,0.1393280029296875,-0.56964111328125
2024-06-20T17:56:31.816+02:00,4607.507880375,1.037124633789062,0.0423583984375,0.4472503662109375
2024-06-20T17:56:31.826+02:00,4607.517938375,0.8856353759765625,0.469482421875,0.1973114013671875
2024-06-20T17:56:31.836+02:00,4607.527995375001,0.670745849609375,0.6636505126953125,-0.5316009521484375
2024-06-20T17:56:31.846+02:00,4607.538053375,0.720428466796875,0.7256011962890625,-0.314666748046875
2024-06-20T17:56:31.856+02:00,4607.548110375,0.6936492919921875,0.659332275390625,0.022613525390625
2024-06-20T17:56:31.866+02:00,4607.558168375001,0.6510772705078125,0.5807952880859375,-0.02667236328125
2024-06-20T17:56:31.876+02:00,4607.568225375,0.595947265625,0.66265869140625,-0.04534912109375
2024-06-20T17:56:31.886+02:00,4607.578283375,0.4872283935546875,0.8043060302734375,-0.0042724609375
2024-06-20T17:56:31.896+02:00,4607.588340375,0.4790496826171875,0.82647705078125,-0.0126953125
2024-06-20T17:56:31.906+02:00,4607.598398375,0.4954376220703125,0.7912139892578125,0.015594482421875
2024-06-20T17:56:31.916+02:00,4607.608455375001,0.469024658203125,0.80657958984375,0.0758209228515625
2024-06-20T17:56:31.926+02:00,4607.618513375,0.4741668701171875,0.8184967041015625,0.057403564453125
2024-06-20T17:56:31.936+02:00,4607.628570375,0.4886474609375,0.850677490234375,0.0426788330078125
2024-06-20T17:56:31.946+02:00,4607.638628375,0.4668426513671875,0.8908233642578125,0.043701171875
2024-06-20T17:56:31.956+02:00,4607.648685375,0.457916259765625,0.9019012451171875,0.042449951171875
2024-06-20T17:56:31.966+02:00,4607.658742375001,0.4776763916015625,0.8942413330078125,0.018707275390625
2024-06-20T17:56:31.976+02:00,4607.668800375001,0.49456787109375,0.8631134033203125,-0.001739501953125
2024-06-20T17:56:31.986+02:00,4607.678857375,0.4980621337890625,0.839263916015625,-0.0003814697265625
2024-06-20T17:56:31.997+02:00,4607.688915375,0.4982147216796875,0.8323974609375,-0.0160369873046875
2024-06-20T17:56:32.007+02:00,4607.698972375,0.4981536865234375,0.8385162353515625,-0.021820068359375
2024-06-20T17:56:32.017+02:00,4607.709030375,0.5074615478515625,0.8465423583984375,-0.0146331787109375
2024-06-20T17:56:32.027+02:00,4607.719087375001,0.5129241943359375,0.8500823974609375,0.0197296142578125
2024-06-20T17:56:32.037+02:00,4607.729145375,0.5145721435546875,0.8388519287109375,0.0161285400390625
2024-06-20T17:56:32.047+02:00,4607.739202375,0.5070343017578125,0.8377227783203125,-0.00262451171875
2024-06-20T17:56:32.057+02:00,4607.749260375001,0.4951171875,0.8380889892578125,-0.03570556640625
2024-06-20T17:56:32.067+02:00,4607.759317375,0.492095947265625,0.841094970703125,-0.03997802734375
2024-06-20T17:56:32.077+02:00,4607.769375375,0.47882080078125,0.83349609375,-0.0287628173828125
2024-06-20T17:56:32.087+02:00,4607.779432375,0.4780120849609375,0.83056640625,-0.0280303955078125
2024-06-20T17:56:32.097+02:00,4607.789489375,0.49053955078125,0.827850341796875,-0.037353515625
2024-06-20T17:56:32.107+02:00,4607.799547375001,0.48089599609375,0.8250274658203125,-0.044952392578125
2024-06-20T17:56:32.117+02:00,4607.809604375,0.4453277587890625,0.8194427490234375,-0.0642547607421875
2024-06-20T17:56:32.127+02:00,4607.819662375,0.4174652099609375,0.8069915771484375,-0.0904998779296875
2024-06-20T17:56:32.137+02:00,4607.829719375,0.398773193359375,0.77978515625,-0.1135711669921875
2024-06-20T17:56:32.147+02:00,4607.839777375,0.3672637939453125,0.7525482177734375,-0.1240997314453125
2024-06-20T17:56:32.157+02:00,4607.849834375001,0.3229827880859375,0.7108306884765625,-0.134063720703125
2024-06-20T17:56:32.167+02:00,4607.859892375001,0.280517578125,0.6541290283203125,-0.1687774658203125
2024-06-20T17:56:32.177+02:00,4607.869949375,0.249420166015625,0.6224365234375,-0.18365478515625
2024-06-20T17:56:32.188+02:00,4607.880007375,0.2197723388671875,0.59686279296875,-0.1881256103515625
2024-06-20T17:56:32.198+02:00,4607.890064375,0.1742706298828125,0.55804443359375,-0.19720458984375
2024-06-20T17:56:32.208+02:00,4607.900122375,0.14324951171875,0.5057220458984375,-0.2347564697265625
2024-06-20T17:56:32.218+02:00,4607.910179375001,0.139007568359375,0.50390625,-0.2826080322265625
2024-06-20T17:56:32.228+02:00,4607.920236375,0.119232177734375,0.515869140625,-0.3004150390625
2024-06-20T17:56:32.238+02:00,4607.930294375,0.0743560791015625,0.5569915771484375,-0.3000335693359375
2024-06-20T17:56:32.248+02:00,4607.940351375,0.033111572265625,0.5856170654296875,-0.3143463134765625
2024-06-20T17:56:32.258+02:00,4607.950409375,-0.002838134765625,0.610382080078125,-0.3194732666015625
2024-06-20T17:56:32.268+02:00,4607.960466375001,-0.0327301025390625,0.608062744140625,-0.3370513916015625
2024-06-20T17:56:32.278+02:00,4607.970524375,-0.051971435546875,0.5566864013671875,-0.3602447509765625
2024-06-20T17:56:32.288+02:00,4607.980581375,-0.078033447265625,0.510589599609375,-0.4043426513671875
2024-06-20T17:56:32.298+02:00,4607.990639375001,-0.095306396484375,0.5346527099609375,-0.41339111328125
2024-06-20T17:56:32.308+02:00,4608.000696375,-0.1397247314453125,0.562164306640625,-0.419647216796875
2024-06-20T17:56:32.318+02:00,4608.010754375,-0.1700592041015625,0.5739898681640625,-0.435333251953125
2024-06-20T17:56:32.328+02:00,4608.020811375,-0.1819000244140625,0.5804595947265625,-0.40289306640625
2024-06-20T17:56:32.338+02:00,4608.030869375,-0.191864013671875,0.562591552734375,-0.383819580078125
2024-06-20T17:56:32.348+02:00,4608.040926375001,-0.193634033203125,0.5580291748046875,-0.32598876953125
2024-06-20T17:56:32.359+02:00,4608.050984375001,-0.220001220703125,0.5759124755859375,-0.28387451171875
2024-06-20T17:56:32.369+02:00,4608.061041375,-0.2614288330078125,0.617218017578125,-0.30230712890625
2024-06-20T17:56:32.379+02:00,4608.071098375,-0.282562255859375,0.6563720703125,-0.3412628173828125
2024-06-20T17:56:32.389+02:00,4608.081156375,-0.2928924560546875,0.737274169921875,-0.4188385009765625
2024-06-20T17:56:32.399+02:00,4608.091213375,-0.269622802734375,0.8584747314453125,-0.5139923095703125
2024-06-20T17:56:32.409+02:00,4608.101271375001,-0.186737060546875,1.01373291015625,-0.4866790771484375
2024-06-20T17:56:32.419+02:00,4608.111328375,-0.1973876953125,1.161300659179688,-0.4012603759765625
2024-06-20T17:56:32.429+02:00,4608.121386375,-0.2684783935546875,1.238021850585938,-0.3658447265625
2024-06-20T17:56:32.439+02:00,4608.131443375,-0.287933349609375,1.15667724609375,-0.3324737548828125
2024-06-20T17:56:32.449+02:00,4608.141501375,-0.3095703125,0.975311279296875,-0.3822021484375
2024-06-20T17:56:32.459+02:00,4608.151558375001,-0.31646728515625,0.950836181640625,-0.492218017578125
2024-06-20T17:56:32.469+02:00,4608.161616375,-0.3419647216796875,1.003707885742188,-0.584442138671875
2024-06-20T17:56:32.479+02:00,4608.171673375,-0.3982696533203125,1.0145263671875,-0.7068939208984375
2024-06-20T17:56:32.489+02:00,4608.181731375001,-0.4289703369140625,1.044769287109375,-0.76605224609375
2024-06-20T17:56:32.499+02:00,4608.191788375,-0.428466796875,1.069107055664062,-0.7963409423828125
2024-06-20T17:56:32.509+02:00,4608.201846375,-0.44488525390625,1.084182739257812,-0.7879638671875
2024-06-20T17:56:32.519+02:00,4608.211903375,-0.4998321533203125,1.10272216796875,-0.7859954833984375
2024-06-20T17:56:32.530+02:00,4608.221960375,-0.5574493408203125,1.04547119140625,-0.8094024658203125
2024-06-20T17:56:32.540+02:00,4608.232018375,-0.592864990234375,0.9716796875,-0.8401336669921875
2024-06-20T17:56:32.550+02:00,4608.242075375,-0.612579345703125,0.9344482421875,-0.866668701171875
2024-06-20T17:56:32.560+02:00,4608.252133375,-0.6341094970703125,0.913482666015625,-0.9155426025390625
2024-06-20T17:56:32.570+02:00,4608.262190375001,-0.6485137939453125,0.9280242919921875,-0.9328460693359375
2024-06-20T17:56:32.580+02:00,4608.272248375,-0.6800384521484375,0.9283905029296875,-0.8756256103515625
2024-06-20T17:56:32.590+02:00,4608.282305375,-0.7128143310546875,0.8783416748046875,-0.8199310302734375
2024-06-20T17:56:32.600+02:00,4608.292363375001,-0.70806884765625,0.7949676513671875,-0.7855072021484375
2024-06-20T17:56:32.610+02:00,4608.302420375,-0.6956329345703125,0.72503662109375,-0.7665252685546875
2024-06-20T17:56:32.620+02:00,4608.312478375,-0.68792724609375,0.672698974609375,-0.74554443359375
2024-06-20T17:56:32.630+02:00,4608.322535375,-0.69451904296875,0.63018798828125,-0.7165679931640625
2024-06-20T17:56:32.640+02:00,4608.332593375,-0.692352294921875,0.5827484130859375,-0.6982269287109375
2024-06-20T17:56:32.650+02:00,4608.342650375001,-0.685760498046875,0.540863037109375,-0.67584228515625
2024-06-20T17:56:32.660+02:00,4608.352708375,-0.6883544921875,0.522216796875,-0.6660919189453125
2024-06-20T17:56:32.670+02:00,4608.362765375,-0.6874847412109375,0.526580810546875,-0.6689605712890625
2024-06-20T17:56:32.680+02:00,4608.372822375,-0.6719207763671875,0.528594970703125,-0.6471099853515625
2024-06-20T17:56:32.690+02:00,4608.382881416667,-0.6716766357421875,0.5192108154296875,-0.626800537109375
2024-06-20T17:56:32.700+02:00,4608.392938416667,-0.6775054931640625,0.473663330078125,-0.5994720458984375
2024-06-20T17:56:32.711+02:00,4608.402996416667,-0.6947021484375,0.403778076171875,-0.5751495361328125
2024-06-20T17:56:32.721+02:00,4608.413053416667,-0.7164764404296875,0.3492431640625,-0.56939697265625
2024-06-20T17:56:32.739+02:00,4608.423111416667,-0.7422637939453125,0.3150634765625,-0.5705108642578125
2024-06-20T17:56:32.742+02:00,4608.433168416667,-0.7738189697265625,0.296295166015625,-0.5568695068359375
2024-06-20T17:56:32.751+02:00,4608.443226416667,-0.814666748046875,0.316680908203125,-0.540618896484375
2024-06-20T17:56:32.761+02:00,4608.453283416667,-0.836822509765625,0.3374176025390625,-0.5499114990234375
2024-06-20T17:56:32.771+02:00,4608.463341416667,-0.8494110107421875,0.3308563232421875,-0.5512542724609375
2024-06-20T17:56:32.781+02:00,4608.473398416667,-0.8734588623046875,0.3112640380859375,-0.5474853515625
2024-06-20T17:56:32.791+02:00,4608.483456416667,-0.91357421875,0.29150390625,-0.5264892578125
2024-06-20T17:56:32.801+02:00,4608.493513416667,-0.9530029296875,0.2691802978515625,-0.5281524658203125
2024-06-20T17:56:32.811+02:00,4608.503571416667,-0.9871826171875,0.271636962890625,-0.5484466552734375
2024-06-20T17:56:32.821+02:00,4608.513628416667,-1.024978637695312,0.2979736328125,-0.5168914794921875
2024-06-20T17:56:32.831+02:00,4608.523685416667,-1.071441650390625,0.331390380859375,-0.564178466796875
2024-06-20T17:56:32.841+02:00,4608.533743416667,-1.06451416015625,0.259185791015625,-0.6184234619140625
2024-06-20T17:56:32.851+02:00,4608.543800416667,-1.020904541015625,0.187042236328125,-0.623687744140625
2024-06-20T17:56:32.861+02:00,4608.553858416667,-0.982421875,0.15667724609375,-0.5901947021484375
2024-06-20T17:56:32.871+02:00,4608.563915416667,-1.00018310546875,0.1488494873046875,-0.5967864990234375
2024-06-20T17:56:32.882+02:00,4608.573973416667,-0.986419677734375,0.264373779296875,-0.5962371826171875
2024-06-20T17:56:32.892+02:00,4608.584030416667,-0.9716949462890625,0.392822265625,-0.5285491943359375
2024-06-20T17:56:32.902+02:00,4608.594088416667,-0.96142578125,0.3747711181640625,-0.5102996826171875
2024-06-20T17:56:32.912+02:00,4608.604145416667,-0.9397735595703125,0.2707977294921875,-0.507415771484375
2024-06-20T17:56:32.922+02:00,4608.614203416667,-0.9161529541015625,0.181365966796875,-0.500823974609375
2024-06-20T17:56:32.932+02:00,4608.624260416667,-0.8945159912109375,0.1269378662109375,-0.492767333984375
2024-06-20T17:56:32.942+02:00,4608.634318416667,-0.88616943359375,0.13299560546875,-0.489410400390625
2024-06-20T17:56:32.952+02:00,4608.644375416667,-0.8900604248046875,0.1843414306640625,-0.5101318359375
2024-06-20T17:56:32.962+02:00,4608.654433416667,-0.8732757568359375,0.2414093017578125,-0.500091552734375
2024-06-20T17:56:32.972+02:00,4608.664490416667,-0.83001708984375,0.21319580078125,-0.4891510009765625
2024-06-20T17:56:32.982+02:00,4608.674548416667,-0.8161468505859375,0.1228485107421875,-0.462066650390625
2024-06-20T17:56:32.992+02:00,4608.684605416667,-0.828277587890625,0.080230712890625,-0.4473876953125
2024-06-20T17:56:33.002+02:00,4608.694662416667,-0.8310546875,0.1157684326171875,-0.4224700927734375
2024-06-20T17:56:33.012+02:00,4608.704720416667,-0.8048553466796875,0.1839447021484375,-0.354156494140625
2024-06-20T17:56:33.022+02:00,4608.714777416667,-0.7929534912109375,0.2141265869140625,-0.220428466796875
2024-06-20T17:56:33.032+02:00,4608.724835416667,-0.8253326416015625,0.2822418212890625,-0.2494049072265625
2024-06-20T17:56:33.042+02:00,4608.734892416667,-0.8217010498046875,0.377349853515625,-0.286376953125
2024-06-20T17:56:33.053+02:00,4608.744950416667,-0.7845306396484375,0.4639739990234375,-0.3607940673828125
2024-06-20T17:56:33.063+02:00,4608.755007416667,-0.7659759521484375,0.454681396484375,-0.427520751953125
2024-06-20T17:56:33.073+02:00,4608.765065416667,-0.78472900390625,0.3910064697265625,-0.4486236572265625
2024-06-20T17:56:33.083+02:00,4608.775122416667,-0.7904510498046875,0.45440673828125,-0.4225921630859375
2024-06-20T17:56:33.093+02:00,4608.785180416667,-0.7646636962890625,0.5364837646484375,-0.3682708740234375
2024-06-20T17:56:33.103+02:00,4608.795237416667,-0.7574615478515625,0.5276336669921875,-0.3311767578125
2024-06-20T17:56:33.113+02:00,4608.805295416667,-0.7626190185546875,0.5047607421875,-0.3035888671875
2024-06-20T17:56:33.123+02:00,4608.815352416667,-0.7689056396484375,0.508575439453125,-0.2138671875
2024-06-20T17:56:33.133+02:00,4608.825410416667,-0.7740478515625,0.6073150634765625,-0.1148834228515625
2024-06-20T17:56:33.143+02:00,4608.835467416667,-0.7528839111328125,0.7435455322265625,-0.075347900390625
2024-06-20T17:56:33.153+02:00,4608.845525416667,-0.7366180419921875,0.8097381591796875,-0.085601806640625
2024-06-20T17:56:33.163+02:00,4608.855582416667,-0.74700927734375,0.818145751953125,-0.093994140625
2024-06-20T17:56:33.173+02:00,4608.865640416667,-0.77996826171875,0.8016815185546875,-0.11627197265625
2024-06-20T17:56:33.183+02:00,4608.875697416667,-0.820953369140625,0.7928619384765625,-0.0859527587890625
2024-06-20T17:56:33.193+02:00,4608.885754416667,-0.83966064453125,0.7391357421875,0.0119476318359375
2024-06-20T17:56:33.203+02:00,4608.895812416667,-0.8321380615234375,0.6632232666015625,0.059051513671875
2024-06-20T17:56:33.213+02:00,4608.905869416667,-0.7702789306640625,0.658233642578125,0.142974853515625
2024-06-20T17:56:33.224+02:00,4608.915927416667,-0.7449188232421875,0.7432708740234375,0.249237060546875
2024-06-20T17:56:33.234+02:00,4608.925984416667,-0.7266387939453125,0.7837982177734375,0.3249359130859375
2024-06-20T17:56:33.244+02:00,4608.936042416667,-0.7111663818359375,0.81201171875,0.39190673828125
2024-06-20T17:56:33.254+02:00,4608.946099416667,-0.701141357421875,0.8484344482421875,0.5155487060546875
2024-06-20T17:56:33.264+02:00,4608.956157416667,-0.6656494140625,0.861907958984375,0.63372802734375
2024-06-20T17:56:33.274+02:00,4608.966214416667,-0.7141265869140625,0.9296722412109375,0.6227569580078125
2024-06-20T17:56:33.284+02:00,4608.976272416667,-0.8103179931640625,1.088546752929688,0.61761474609375
2024-06-20T17:56:33.294+02:00,4608.986329416667,-0.911163330078125,1.132965087890625,0.4654541015625
2024-06-20T17:56:33.304+02:00,4608.996387416667,-0.8983917236328125,1.212646484375,0.1777801513671875
2024-06-20T17:56:33.314+02:00,4609.006444416667,-0.8146514892578125,1.272369384765625,0.0029449462890625
2024-06-20T17:56:33.324+02:00,4609.016502416667,-0.7226409912109375,1.07904052734375,0.108795166015625
2024-06-20T17:56:33.334+02:00,4609.026559416667,-0.7211761474609375,0.814239501953125,0.2528533935546875
2024-06-20T17:56:33.344+02:00,4609.036617416667,-0.779937744140625,0.5107421875,0.299560546875
2024-06-20T17:56:33.354+02:00,4609.046674416667,-0.787384033203125,0.3358917236328125,0.384918212890625
2024-06-20T17:56:33.364+02:00,4609.056732416667,-0.7107391357421875,0.395538330078125,0.4232025146484375
2024-06-20T17:56:33.374+02:00,4609.066789416667,-0.6273193359375,0.625152587890625,0.3868865966796875
2024-06-20T17:56:33.384+02:00,4609.076847416667,-0.63128662109375,0.9246978759765625,0.311676025390625
2024-06-20T17:56:33.394+02:00,4609.086904416667,-0.63665771484375,1.245986938476562,0.2858428955078125
2024-06-20T17:56:33.405+02:00,4609.096961416667,-0.5999908447265625,1.458099365234375,0.240478515625
2024-06-20T17:56:33.415+02:00,4609.107019416667,-0.575836181640625,1.340179443359375,0.1331024169921875
2024-06-20T17:56:33.425+02:00,4609.117076416667,-0.559844970703125,0.8614501953125,-0.0513458251953125
2024-06-20T17:56:33.435+02:00,4609.127134416667,-0.50299072265625,0.3958892822265625,-0.102203369140625
2024-06-20T17:56:33.445+02:00,4609.137191416667,-0.437286376953125,0.3642730712890625,0.041015625
2024-06-20T17:56:33.455+02:00,4609.147249416667,-0.52362060546875,0.5199432373046875,0.189971923828125
2024-06-20T17:56:33.465+02:00,4609.157306416667,-0.6672821044921875,0.4564056396484375,0.112457275390625
2024-06-20T17:56:33.475+02:00,4609.167364416667,-0.686737060546875,0.3385162353515625,-0.1265411376953125
2024-06-20T17:56:33.485+02:00,4609.177421416667,-0.6379547119140625,0.3050994873046875,-0.2639617919921875
2024-06-20T17:56:33.495+02:00,4609.187479416667,-0.624237060546875,0.268341064453125,-0.2756805419921875
2024-06-20T17:56:33.505+02:00,4609.197536416667,-0.749420166015625,0.235137939453125,-0.2602386474609375
2024-06-20T17:56:33.515+02:00,4609.207594416667,-0.8588104248046875,0.3307952880859375,-0.24456787109375
2024-06-20T17:56:33.525+02:00,4609.217651416667,-0.79833984375,0.6423187255859375,-0.3217620849609375
2024-06-20T17:56:33.535+02:00,4609.227709416667,-0.6771240234375,0.8958892822265625,-0.491668701171875
2024-06-20T17:56:33.545+02:00,4609.237766416667,-0.5783538818359375,1.00531005859375,-0.5751800537109375
2024-06-20T17:56:33.555+02:00,4609.247824416667,-0.5545806884765625,0.89337158203125,-0.598846435546875
2024-06-20T17:56:33.565+02:00,4609.257881416667,-0.560638427734375,0.785247802734375,-0.56744384765625
2024-06-20T17:56:33.575+02:00,4609.267938416667,-0.5453033447265625,0.7515869140625,-0.4717864990234375
2024-06-20T17:56:33.586+02:00,4609.277996416667,-0.518890380859375,0.7520599365234375,-0.42889404296875
2024-06-20T17:56:33.596+02:00,4609.288053416667,-0.4914093017578125,0.7934112548828125,-0.41766357421875
2024-06-20T17:56:33.606+02:00,4609.298111416667,-0.447906494140625,0.8076934814453125,-0.4488677978515625
2024-06-20T17:56:33.616+02:00,4609.308168416667,-0.3800048828125,0.795745849609375,-0.42205810546875
2024-06-20T17:56:33.626+02:00,4609.318226416667,-0.3474578857421875,0.74237060546875,-0.28704833984375
2024-06-20T17:56:33.636+02:00,4609.328283416667,-0.385833740234375,0.6185760498046875,-0.1976776123046875
2024-06-20T17:56:33.646+02:00,4609.338341416667,-0.4297332763671875,0.600189208984375,-0.2169647216796875
2024-06-20T17:56:33.656+02:00,4609.348398416667,-0.4228973388671875,0.7295074462890625,-0.3067626953125
2024-06-20T17:56:33.666+02:00,4609.358456416667,-0.4290313720703125,0.843109130859375,-0.3581695556640625
2024-06-20T17:56:33.676+02:00,4609.368513416667,-0.4207000732421875,0.808074951171875,-0.396087646484375
2024-06-20T17:56:33.686+02:00,4609.378571416667,-0.4030914306640625,0.6777496337890625,-0.3042755126953125
2024-06-20T17:56:33.696+02:00,4609.388627750001,-0.4463348388671875,0.6045684814453125,-0.2910614013671875
2024-06-20T17:56:33.706+02:00,4609.39868575,-0.4911651611328125,0.626922607421875,-0.3507080078125
2024-06-20T17:56:33.716+02:00,4609.40874275,-0.470001220703125,0.700653076171875,-0.323822021484375
2024-06-20T17:56:33.726+02:00,4609.418800750001,-0.4381866455078125,0.712158203125,-0.2748565673828125
2024-06-20T17:56:33.744+02:00,4609.42885775,-0.4538421630859375,0.717315673828125,-0.2727508544921875
2024-06-20T17:56:33.747+02:00,4609.43891575,-0.4761810302734375,0.701690673828125,-0.28045654296875
2024-06-20T17:56:33.756+02:00,4609.44897275,-0.5057220458984375,0.675384521484375,-0.3377685546875
2024-06-20T17:56:33.766+02:00,4609.45903075,-0.529083251953125,0.6525115966796875,-0.3946533203125
2024-06-20T17:56:33.777+02:00,4609.469087750001,-0.5437774658203125,0.650909423828125,-0.3898773193359375
2024-06-20T17:56:33.787+02:00,4609.47914575,-0.56536865234375,0.6992034912109375,-0.40191650390625
2024-06-20T17:56:33.797+02:00,4609.48920275,-0.57293701171875,0.7540435791015625,-0.38629150390625
2024-06-20T17:56:33.807+02:00,4609.49926075,-0.5797271728515625,0.8070526123046875,-0.4172210693359375
2024-06-20T17:56:33.817+02:00,4609.50931775,-0.5831298828125,0.79052734375,-0.4594879150390625
2024-06-20T17:56:33.827+02:00,4609.519374750001,-0.5954437255859375,0.7113037109375,-0.4016876220703125
2024-06-20T17:56:33.837+02:00,4609.529432750001,-0.615020751953125,0.66546630859375,-0.389007568359375
2024-06-20T17:56:33.847+02:00,4609.53948975,-0.6097259521484375,0.6940765380859375,-0.40966796875
2024-06-20T17:56:33.857+02:00,4609.54954775,-0.6020050048828125,0.75994873046875,-0.4362640380859375
2024-06-20T17:56:33.867+02:00,4609.55960475,-0.5835418701171875,0.80694580078125,-0.4370269775390625
2024-06-20T17:56:33.877+02:00,4609.56966275,-0.5774078369140625,0.8182830810546875,-0.4369049072265625
2024-06-20T17:56:33.887+02:00,4609.579719750001,-0.5833740234375,0.7750244140625,-0.3643341064453125
2024-06-20T17:56:33.897+02:00,4609.58977775,-0.5954437255859375,0.76129150390625,-0.3883514404296875
2024-06-20T17:56:33.908+02:00,4609.59983475,-0.5728912353515625,0.706085205078125,-0.443450927734375
2024-06-20T17:56:33.917+02:00,4609.609892750001,-0.6077728271484375,0.6252288818359375,-0.512969970703125
2024-06-20T17:56:33.927+02:00,4609.61994975,-0.63720703125,0.643524169921875,-0.51715087890625
2024-06-20T17:56:33.938+02:00,4609.63000775,-0.603912353515625,0.68017578125,-0.505279541015625
2024-06-20T17:56:33.948+02:00,4609.64006475,-0.5787200927734375,0.6835784912109375,-0.470458984375
2024-06-20T17:56:33.958+02:00,4609.65012275,-0.5964508056640625,0.6937408447265625,-0.4737091064453125
2024-06-20T17:56:33.968+02:00,4609.660179750001,-0.6171875,0.69476318359375,-0.4832763671875
2024-06-20T17:56:33.978+02:00,4609.670237750001,-0.6067657470703125,0.7071685791015625,-0.4862213134765625
2024-06-20T17:56:33.988+02:00,4609.68029475,-0.593353271484375,0.7090606689453125,-0.477264404296875
2024-06-20T17:56:33.998+02:00,4609.69035275,-0.58807373046875,0.682769775390625,-0.477752685546875
2024-06-20T17:56:34.008+02:00,4609.70040975,-0.594573974609375,0.66448974609375,-0.5079345703125
2024-06-20T17:56:34.018+02:00,4609.71046775,-0.5924072265625,0.66448974609375,-0.4855194091796875
2024-06-20T17:56:34.028+02:00,4609.720524750001,-0.5883636474609375,0.637359619140625,-0.50970458984375
2024-06-20T17:56:34.038+02:00,4609.73058275,-0.5673828125,0.62152099609375,-0.51141357421875
2024-06-20T17:56:34.048+02:00,4609.74063975,-0.5493621826171875,0.599395751953125,-0.5108489990234375
2024-06-20T17:56:34.058+02:00,4609.75069675,-0.5508880615234375,0.58984375,-0.5113525390625
2024-06-20T17:56:34.068+02:00,4609.76075475,-0.53680419921875,0.58062744140625,-0.5090179443359375
2024-06-20T17:56:34.078+02:00,4609.770811750001,-0.5252685546875,0.5834197998046875,-0.5098876953125
2024-06-20T17:56:34.088+02:00,4609.78086975,-0.513702392578125,0.5726776123046875,-0.52484130859375
2024-06-20T17:56:34.098+02:00,4609.79092675,-0.5083160400390625,0.560791015625,-0.5356597900390625
2024-06-20T17:56:34.109+02:00,4609.800984750001,-0.5073089599609375,0.582275390625,-0.5501556396484375
2024-06-20T17:56:34.119+02:00,4609.81104175,-0.507537841796875,0.60845947265625,-0.5631561279296875
2024-06-20T17:56:34.129+02:00,4609.82109975,-0.51617431640625,0.5983428955078125,-0.567138671875
2024-06-20T17:56:34.139+02:00,4609.83115675,-0.5297393798828125,0.5797576904296875,-0.5714111328125
2024-06-20T17:56:34.149+02:00,4609.84121475,-0.5528717041015625,0.60491943359375,-0.589141845703125
2024-06-20T17:56:34.159+02:00,4609.851271750001,-0.5588531494140625,0.6493377685546875,-0.6040496826171875
2024-06-20T17:56:34.169+02:00,4609.861329750001,-0.5478057861328125,0.670867919921875,-0.613037109375
2024-06-20T17:56:34.179+02:00,4609.87138675,-0.5414581298828125,0.672515869140625,-0.6119842529296875
2024-06-20T17:56:34.189+02:00,4609.88144475,-0.5511932373046875,0.6847991943359375,-0.6074066162109375
2024-06-20T17:56:34.199+02:00,4609.89150175,-0.550811767578125,0.711456298828125,-0.613800048828125
2024-06-20T17:56:34.209+02:00,4609.90155975,-0.5440673828125,0.71820068359375,-0.6245269775390625
2024-06-20T17:56:34.219+02:00,4609.911616750001,-0.5335845947265625,0.7228851318359375,-0.630828857421875
2024-06-20T17:56:34.229+02:00,4609.92167475,-0.534454345703125,0.728546142578125,-0.6452484130859375
2024-06-20T17:56:34.239+02:00,4609.93173175,-0.5320281982421875,0.7316131591796875,-0.654388427734375
2024-06-20T17:56:34.249+02:00,4609.941789750001,-0.52301025390625,0.7204132080078125,-0.64849853515625
2024-06-20T17:56:34.259+02:00,4609.95184675,-0.5087432861328125,0.697967529296875,-0.6255645751953125
2024-06-20T17:56:34.269+02:00,4609.96190475,-0.504852294921875,0.6968536376953125,-0.611419677734375
2024-06-20T17:56:34.280+02:00,4609.97196175,-0.497161865234375,0.7335662841796875,-0.624420166015625
2024-06-20T17:56:34.290+02:00,4609.98201975,-0.48101806640625,0.7548828125,-0.64794921875
2024-06-20T17:56:34.300+02:00,4609.992076750001,-0.4753570556640625,0.7563934326171875,-0.6611175537109375
2024-06-20T17:56:34.310+02:00,4610.00213375,-0.4740753173828125,0.71929931640625,-0.610687255859375
2024-06-20T17:56:34.320+02:00,4610.01219175,-0.4973602294921875,0.677398681640625,-0.5694427490234375
2024-06-20T17:56:34.330+02:00,4610.02224875,-0.5362091064453125,0.7401275634765625,-0.5351409912109375
2024-06-20T17:56:34.340+02:00,4610.03230675,-0.5545196533203125,0.8218536376953125,-0.5529327392578125
2024-06-20T17:56:34.350+02:00,4610.042363750001,-0.533355712890625,0.846405029296875,-0.5811309814453125
2024-06-20T17:56:34.360+02:00,4610.052421750001,-0.5228118896484375,0.83514404296875,-0.5836944580078125
2024-06-20T17:56:34.370+02:00,4610.06247875,-0.525238037109375,0.83062744140625,-0.545928955078125
2024-06-20T17:56:34.380+02:00,4610.07253675,-0.531646728515625,0.8476104736328125,-0.4754638671875
2024-06-20T17:56:34.390+02:00,4610.08259375,-0.520111083984375,0.8510589599609375,-0.462921142578125
2024-06-20T17:56:34.400+02:00,4610.09265175,-0.5009307861328125,0.8185577392578125,-0.472320556640625
2024-06-20T17:56:34.410+02:00,4610.102708750001,-0.4838104248046875,0.779693603515625,-0.4889068603515625
2024-06-20T17:56:34.420+02:00,4610.11276675,-0.4638214111328125,0.7801055908203125,-0.4695892333984375
2024-06-20T17:56:34.430+02:00,4610.12282375,-0.468353271484375,0.769561767578125,-0.488372802734375
2024-06-20T17:56:34.440+02:00,4610.132881750001,-0.47393798828125,0.74847412109375,-0.541534423828125
2024-06-20T17:56:34.450+02:00,4610.14293875,-0.4434356689453125,0.7787933349609375,-0.526824951171875
2024-06-20T17:56:34.461+02:00,4610.15299675,-0.40765380859375,0.7918853759765625,-0.50347900390625
2024-06-20T17:56:34.471+02:00,4610.16305375,-0.3833770751953125,0.774322509765625,-0.505462646484375
2024-06-20T17:56:34.481+02:00,4610.17311175,-0.372406005859375,0.755584716796875,-0.465118408203125
2024-06-20T17:56:34.491+02:00,4610.183168750001,-0.3885650634765625,0.6983184814453125,-0.4628753662109375
2024-06-20T17:56:34.501+02:00,4610.193226750001,-0.3950653076171875,0.6916656494140625,-0.4451141357421875
2024-06-20T17:56:34.511+02:00,4610.20328375,-0.3815460205078125,0.740386962890625,-0.41229248046875
2024-06-20T17:56:34.521+02:00,4610.21334175,-0.356170654296875,0.753875732421875,-0.401397705078125
2024-06-20T17:56:34.531+02:00,4610.22339875,-0.3482818603515625,0.70892333984375,-0.3741607666015625
2024-06-20T17:56:34.541+02:00,4610.23345675,-0.3556976318359375,0.65374755859375,-0.33343505859375
2024-06-20T17:56:34.551+02:00,4610.243513750001,-0.3738555908203125,0.6740264892578125,-0.3167266845703125
2024-06-20T17:56:34.561+02:00,4610.25357175,-0.3953704833984375,0.7129058837890625,-0.3819732666015625
2024-06-20T17:56:34.571+02:00,4610.26362875,-0.3542327880859375,0.77801513671875,-0.3946685791015625
2024-06-20T17:56:34.581+02:00,4610.27368575,-0.2944488525390625,0.7933197021484375,-0.3892364501953125
2024-06-20T17:56:34.591+02:00,4610.28374375,-0.300872802734375,0.749847412109375,-0.389007568359375
2024-06-20T17:56:34.601+02:00,4610.293800750001,-0.3253173828125,0.74468994140625,-0.3671875
2024-06-20T17:56:34.611+02:00,4610.30385875,-0.33294677734375,0.742767333984375,-0.342254638671875
2024-06-20T17:56:34.621+02:00,4610.31391575,-0.342498779296875,0.6982421875,-0.295501708984375
2024-06-20T17:56:34.632+02:00,4610.323973750001,-0.34722900390625,0.6792144775390625,-0.2491912841796875
2024-06-20T17:56:34.642+02:00,4610.33403075,-0.357391357421875,0.706451416015625,-0.285430908203125
2024-06-20T17:56:34.652+02:00,4610.34408875,-0.353515625,0.7654266357421875,-0.346435546875
2024-06-20T17:56:34.662+02:00,4610.35414575,-0.33392333984375,0.803924560546875,-0.369781494140625
2024-06-20T17:56:34.672+02:00,4610.36420375,-0.3058013916015625,0.8029327392578125,-0.35943603515625
2024-06-20T17:56:34.682+02:00,4610.37426075,-0.3095550537109375,0.7966461181640625,-0.3189239501953125
2024-06-20T17:56:34.692+02:00,4610.384318375,-0.3442840576171875,0.7783966064453125,-0.2833709716796875
2024-06-20T17:56:34.702+02:00,4610.394375375,-0.380767822265625,0.7549896240234375,-0.268768310546875
2024-06-20T17:56:34.712+02:00,4610.404433375,-0.4135894775390625,0.7295684814453125,-0.2639617919921875
2024-06-20T17:56:34.722+02:00,4610.414490375,-0.415130615234375,0.6869659423828125,-0.2648468017578125
2024-06-20T17:56:34.732+02:00,4610.424548375,-0.40911865234375,0.627349853515625,-0.2292633056640625
2024-06-20T17:56:34.749+02:00,4610.434605375001,-0.435455322265625,0.609039306640625,-0.2108154296875
2024-06-20T17:56:34.754+02:00,4610.444663375,-0.4672088623046875,0.64947509765625,-0.203643798828125
2024-06-20T17:56:34.762+02:00,4610.454720375,-0.4781036376953125,0.7205810546875,-0.183807373046875
2024-06-20T17:56:34.772+02:00,4610.464778375001,-0.470184326171875,0.79620361328125,-0.1696014404296875
2024-06-20T17:56:34.782+02:00,4610.474835375,-0.4770355224609375,0.88604736328125,-0.15673828125
2024-06-20T17:56:34.792+02:00,4610.484893375,-0.483367919921875,0.909210205078125,-0.14483642578125
2024-06-20T17:56:34.802+02:00,4610.494950375,-0.47662353515625,0.864654541015625,-0.147918701171875
2024-06-20T17:56:34.813+02:00,4610.505008375,-0.47039794921875,0.798919677734375,-0.13397216796875
2024-06-20T17:56:34.823+02:00,4610.515065375001,-0.487884521484375,0.7336578369140625,-0.1277313232421875
2024-06-20T17:56:34.833+02:00,4610.525122375,-0.521270751953125,0.6486663818359375,-0.1605987548828125
2024-06-20T17:56:34.843+02:00,4610.535180375,-0.5430908203125,0.6553955078125,-0.18267822265625
2024-06-20T17:56:34.853+02:00,4610.545237375,-0.5680999755859375,0.77923583984375,-0.1663665771484375
2024-06-20T17:56:34.863+02:00,4610.555295375,-0.5666046142578125,0.866607666015625,-0.1360626220703125
2024-06-20T17:56:34.873+02:00,4610.565352375001,-0.5370635986328125,0.870758056640625,-0.1176910400390625
2024-06-20T17:56:34.883+02:00,4610.575410375001,-0.51483154296875,0.851837158203125,-0.1038970947265625
2024-06-20T17:56:34.893+02:00,4610.585467375,-0.50140380859375,0.857818603515625,-0.1104583740234375
2024-06-20T17:56:34.903+02:00,4610.595525375,-0.479705810546875,0.883514404296875,-0.109405517578125
2024-06-20T17:56:34.913+02:00,4610.605582375,-0.455963134765625,0.906494140625,-0.1324615478515625
2024-06-20T17:56:34.923+02:00,4610.615640375,-0.4439239501953125,0.926910400390625,-0.156707763671875
2024-06-20T17:56:34.933+02:00,4610.625697375001,-0.4447784423828125,0.9356689453125,-0.187530517578125
2024-06-20T17:56:34.943+02:00,4610.635755375,-0.44439697265625,0.963897705078125,-0.194915771484375
2024-06-20T17:56:34.953+02:00,4610.645812375,-0.4485626220703125,0.992919921875,-0.187469482421875
2024-06-20T17:56:34.963+02:00,4610.655870375001,-0.451171875,1.037826538085938,-0.1960296630859375
2024-06-20T17:56:34.973+02:00,4610.665927375,-0.439453125,1.087753295898438,-0.19293212890625
2024-06-20T17:56:34.984+02:00,4610.675985375,-0.4188995361328125,1.082107543945312,-0.1855926513671875
2024-06-20T17:56:34.994+02:00,4610.686042375,-0.3956298828125,1.020065307617188,-0.15948486328125
2024-06-20T17:56:35.004+02:00,4610.696100375,-0.381500244140625,0.9481964111328125,-0.12957763671875
2024-06-20T17:56:35.014+02:00,4610.706157375001,-0.3858489990234375,0.907806396484375,-0.1259613037109375
2024-06-20T17:56:35.024+02:00,4610.716215375001,-0.380767822265625,0.893035888671875,-0.1403656005859375
2024-06-20T17:56:35.034+02:00,4610.726272375,-0.3539276123046875,0.892730712890625,-0.14727783203125
2024-06-20T17:56:35.044+02:00,4610.736330375,-0.3241729736328125,0.89422607421875,-0.147003173828125
2024-06-20T17:56:35.054+02:00,4610.746387375,-0.3084716796875,0.8748321533203125,-0.15985107421875
2024-06-20T17:56:35.064+02:00,4610.756445375,-0.3056793212890625,0.864959716796875,-0.151519775390625
2024-06-20T17:56:35.074+02:00,4610.766502375001,-0.3113861083984375,0.85125732421875,-0.13189697265625
2024-06-20T17:56:35.084+02:00,4610.776560375,-0.319091796875,0.8403778076171875,-0.1329345703125
2024-06-20T17:56:35.094+02:00,4610.786617375,-0.322723388671875,0.8770599365234375,-0.1488037109375
2024-06-20T17:56:35.104+02:00,4610.796675375001,-0.3166961669921875,0.9188690185546875,-0.1512451171875
2024-06-20T17:56:35.114+02:00,4610.806732375,-0.308135986328125,0.9444427490234375,-0.1158905029296875
2024-06-20T17:56:35.124+02:00,4610.816789375001,-0.3277740478515625,0.96478271484375,-0.10052490234375
2024-06-20T17:56:35.134+02:00,4610.826847375,-0.36962890625,1.018783569335938,-0.1211395263671875
2024-06-20T17:56:35.144+02:00,4610.836904375,-0.3925628662109375,1.094284057617188,-0.14300537109375
2024-06-20T17:56:35.154+02:00,4610.846962375001,-0.4050140380859375,1.111587524414062,-0.151153564453125
2024-06-20T17:56:35.165+02:00,4610.857019375,-0.4179229736328125,1.090057373046875,-0.1464691162109375
2024-06-20T17:56:35.175+02:00,4610.867077375,-0.438934326171875,1.095932006835938,-0.1288299560546875
2024-06-20T17:56:35.185+02:00,4610.877134375,-0.4578704833984375,1.133590698242188,-0.1270294189453125
2024-06-20T17:56:35.195+02:00,4610.887192375,-0.455322265625,1.141860961914062,-0.1268157958984375
2024-06-20T17:56:35.205+02:00,4610.897249375001,-0.4346771240234375,1.11083984375,-0.12103271484375
2024-06-20T17:56:35.215+02:00,4610.907307375001,-0.416107177734375,1.087570190429688,-0.12188720703125
2024-06-20T17:56:35.225+02:00,4610.917364375,-0.40264892578125,1.099639892578125,-0.108978271484375
2024-06-20T17:56:35.235+02:00,4610.927422375,-0.37481689453125,1.099853515625,-0.092803955078125
2024-06-20T17:56:35.245+02:00,4610.937479375,-0.34716796875,1.044769287109375,-0.084808349609375
2024-06-20T17:56:35.255+02:00,4610.947537375,-0.335418701171875,0.98199462890625,-0.0769195556640625
2024-06-20T17:56:35.265+02:00,4610.957594375001,-0.3386383056640625,0.96478271484375,-0.0802459716796875
2024-06-20T17:56:35.275+02:00,4610.967652375,-0.3415069580078125,0.991119384765625,-0.0905303955078125
2024-06-20T17:56:35.285+02:00,4610.977709375,-0.32733154296875,1.01312255859375,-0.0985107421875
2024-06-20T17:56:35.295+02:00,4610.987767375001,-0.3012542724609375,1.003936767578125,-0.096527099609375
2024-06-20T17:56:35.305+02:00,4610.997824375,-0.29351806640625,0.9769439697265625,-0.0962982177734375
2024-06-20T17:56:35.315+02:00,4611.007882375,-0.29644775390625,0.977447509765625,-0.0951995849609375
2024-06-20T17:56:35.325+02:00,4611.017939375,-0.2914581298828125,0.9871063232421875,-0.1035003662109375
2024-06-20T17:56:35.336+02:00,4611.027997375,-0.2729644775390625,0.9620208740234375,-0.088623046875
2024-06-20T17:56:35.346+02:00,4611.038054375001,-0.2523193359375,0.883453369140625,-0.090606689453125
2024-06-20T17:56:35.356+02:00,4611.048112375001,-0.2448883056640625,0.8382720947265625,-0.0760498046875
2024-06-20T17:56:35.366+02:00,4611.058169375,-0.256011962890625,0.810394287109375,-0.07080078125
2024-06-20T17:56:35.376+02:00,4611.068227375,-0.2537689208984375,0.7907562255859375,-0.0717010498046875
2024-06-20T17:56:35.386+02:00,4611.078284375,-0.2380523681640625,0.7640838623046875,-0.06591796875
2024-06-20T17:56:35.396+02:00,4611.088342375,-0.235015869140625,0.7466278076171875,-0.0679931640625
2024-06-20T17:56:35.406+02:00,4611.098399375001,-0.237518310546875,0.731903076171875,-0.0872802734375
2024-06-20T17:56:35.416+02:00,4611.108457375,-0.237548828125,0.7299041748046875,-0.0927734375
2024-06-20T17:56:35.426+02:00,4611.118514375,-0.234771728515625,0.7270660400390625,-0.0887603759765625
2024-06-20T17:56:35.436+02:00,4611.128571375,-0.2315673828125,0.7039794921875,-0.0848236083984375
2024-06-20T17:56:35.446+02:00,4611.138629375,-0.2283782958984375,0.682159423828125,-0.0781402587890625
2024-06-20T17:56:35.456+02:00,4611.148686375001,-0.222900390625,0.6717987060546875,-0.062835693359375
2024-06-20T17:56:35.466+02:00,4611.158744375,-0.22607421875,0.6648406982421875,-0.0439605712890625
2024-06-20T17:56:35.476+02:00,4611.168801375,-0.2462005615234375,0.6669158935546875,-0.0226898193359375
2024-06-20T17:56:35.486+02:00,4611.178859375001,-0.2912445068359375,0.6481170654296875,-0.0094757080078125
2024-06-20T17:56:35.496+02:00,4611.188916375,-0.3277587890625,0.62420654296875,-0.0251312255859375
2024-06-20T17:56:35.507+02:00,4611.198974375,-0.351837158203125,0.69818115234375,-0.0745391845703125
2024-06-20T17:56:35.517+02:00,4611.209031375,-0.3642730712890625,0.856964111328125,-0.1368865966796875
2024-06-20T17:56:35.527+02:00,4611.219089375,-0.36578369140625,0.934417724609375,-0.1769866943359375
2024-06-20T17:56:35.537+02:00,4611.229146375001,-0.3825531005859375,0.8896636962890625,-0.1791229248046875
2024-06-20T17:56:35.547+02:00,4611.239204375001,-0.4208526611328125,0.831085205078125,-0.1351318359375
2024-06-20T17:56:35.557+02:00,4611.249261375,-0.4632568359375,0.792449951171875,-0.0933074951171875
2024-06-20T17:56:35.567+02:00,4611.259319375,-0.5079193115234375,0.8238525390625,-0.093170166015625
2024-06-20T17:56:35.577+02:00,4611.269376375,-0.542510986328125,0.9284210205078125,-0.123565673828125
2024-06-20T17:56:35.587+02:00,4611.279434375,-0.570220947265625,1.041900634765625,-0.1515350341796875
2024-06-20T17:56:35.597+02:00,4611.289491375001,-0.584228515625,1.142593383789062,-0.15069580078125
2024-06-20T17:56:35.607+02:00,4611.299549375,-0.5874481201171875,1.2030029296875,-0.125457763671875
2024-06-20T17:56:35.617+02:00,4611.309606375,-0.605621337890625,1.208465576171875,-0.0992279052734375
2024-06-20T17:56:35.627+02:00,4611.319664375001,-0.652313232421875,1.171234130859375,-0.1209716796875
2024-06-20T17:56:35.637+02:00,4611.329721375,-0.6942596435546875,1.15771484375,-0.15533447265625
2024-06-20T17:56:35.647+02:00,4611.339779375,-0.7185516357421875,1.176559448242188,-0.1896514892578125
2024-06-20T17:56:35.657+02:00,4611.349836375,-0.724029541015625,1.208847045898438,-0.233123779296875
2024-06-20T17:56:35.667+02:00,4611.359894375,-0.71514892578125,1.255935668945312,-0.258026123046875
2024-06-20T17:56:35.677+02:00,4611.369951375001,-0.714141845703125,1.266555786132812,-0.260986328125
2024-06-20T17:56:35.688+02:00,4611.380009375001,-0.7115325927734375,1.267318725585938,-0.24945068359375
2024-06-20T17:56:35.698+02:00,4611.39006675,-0.701416015625,1.281784057617188,-0.234039306640625
2024-06-20T17:56:35.708+02:00,4611.40012475,-0.6772613525390625,1.283096313476562,-0.2247161865234375
2024-06-20T17:56:35.718+02:00,4611.41018175,-0.6439666748046875,1.297378540039062,-0.22283935546875
2024-06-20T17:56:35.728+02:00,4611.42023975,-0.6064300537109375,1.285934448242188,-0.2068328857421875
2024-06-20T17:56:35.738+02:00,4611.430296750001,-0.588104248046875,1.234786987304688,-0.205841064453125
2024-06-20T17:56:35.751+02:00,4611.440354750001,-0.592376708984375,1.220535278320312,-0.2091217041015625
2024-06-20T17:56:35.758+02:00,4611.45041175,-0.5996856689453125,1.242355346679688,-0.2310791015625
2024-06-20T17:56:35.768+02:00,4611.46046875,-0.592315673828125,1.255355834960938,-0.2342529296875
2024-06-20T17:56:35.778+02:00,4611.47052675,-0.562652587890625,1.260894775390625,-0.20587158203125
2024-06-20T17:56:35.788+02:00,4611.480583750001,-0.5382232666015625,1.2625732421875,-0.1940155029296875
2024-06-20T17:56:35.798+02:00,4611.490641750001,-0.5257568359375,1.283523559570312,-0.1844940185546875
2024-06-20T17:56:35.808+02:00,4611.50069875,-0.5165557861328125,1.310409545898438,-0.164154052734375
2024-06-20T17:56:35.818+02:00,4611.51075675,-0.486968994140625,1.29437255859375,-0.150054931640625
2024-06-20T17:56:35.828+02:00,4611.52081375,-0.4631500244140625,1.222000122070312,-0.127166748046875
2024-06-20T17:56:35.838+02:00,4611.53087175,-0.4611663818359375,1.1793212890625,-0.11456298828125
2024-06-20T17:56:35.848+02:00,4611.540928750001,-0.4568328857421875,1.17449951171875,-0.1024627685546875
2024-06-20T17:56:35.859+02:00,4611.55098675,-0.42724609375,1.195831298828125,-0.080718994140625
2024-06-20T17:56:35.869+02:00,4611.56104375,-0.3665924072265625,1.202621459960938,-0.05859375
2024-06-20T17:56:35.879+02:00,4611.571101750001,-0.3038787841796875,1.1934814453125,-0.0275421142578125
2024-06-20T17:56:35.889+02:00,4611.58115875,-0.2500457763671875,1.188705444335938,0.01605224609375
2024-06-20T17:56:35.899+02:00,4611.59121675,-0.2125091552734375,1.112655639648438,0.0561981201171875
2024-06-20T17:56:35.909+02:00,4611.60127375,-0.1729583740234375,1.054306030273438,0.0750732421875
2024-06-20T17:56:35.919+02:00,4611.61133175,-0.123992919921875,1.019119262695312,0.106109619140625
2024-06-20T17:56:35.929+02:00,4611.621388750001,-0.0763397216796875,0.971099853515625,0.1182708740234375
2024-06-20T17:56:35.939+02:00,4611.631446750001,-0.0365753173828125,0.9496307373046875,0.1185760498046875
2024-06-20T17:56:35.949+02:00,4611.64150375,0.0206146240234375,0.907562255859375,0.1517791748046875
2024-06-20T17:56:35.959+02:00,4611.65156175,0.0749359130859375,0.785858154296875,0.192474365234375
2024-06-20T17:56:35.969+02:00,4611.66161875,0.1047515869140625,0.6676483154296875,0.247711181640625
2024-06-20T17:56:35.979+02:00,4611.67167675,0.14312744140625,0.618316650390625,0.3175811767578125
2024-06-20T17:56:35.989+02:00,4611.681733750001,0.19647216796875,0.5831756591796875,0.3937835693359375
2024-06-20T17:56:35.999+02:00,4611.69179175,0.26519775390625,0.491119384765625,0.4783782958984375
2024-06-20T17:56:36.009+02:00,4611.70184875,0.3213653564453125,0.3424530029296875,0.569793701171875
2024-06-20T17:56:36.019+02:00,4611.711906750001,0.35345458984375,0.2691192626953125,0.66412353515625
2024-06-20T17:56:36.029+02:00,4611.72196375,0.35357666015625,0.24847412109375,0.75225830078125
2024-06-20T17:56:36.040+02:00,4611.73202175,0.365997314453125,0.084136962890625,0.82940673828125
2024-06-20T17:56:36.050+02:00,4611.74207875,0.4532623291015625,-0.068084716796875,0.8713836669921875
2024-06-20T17:56:36.060+02:00,4611.75213675,0.5012969970703125,-0.0539703369140625,0.8748016357421875
2024-06-20T17:56:36.070+02:00,4611.762193750001,0.3550872802734375,0.0581207275390625,0.775299072265625
2024-06-20T17:56:36.080+02:00,4611.772251750001,0.1560516357421875,0.2320098876953125,0.6513671875
2024-06-20T17:56:36.090+02:00,4611.78230875,0.0052337646484375,0.3553619384765625,0.51055908203125
2024-06-20T17:56:36.100+02:00,4611.79236675,-0.1243896484375,0.4042205810546875,0.33319091796875
2024-06-20T17:56:36.110+02:00,4611.80242375,-0.28955078125,0.535491943359375,0.21331787109375
2024-06-20T17:56:36.120+02:00,4611.81248175,-0.4670257568359375,0.537872314453125,-0.0221405029296875
2024-06-20T17:56:36.130+02:00,4611.822538750001,-0.5623016357421875,0.4516754150390625,-0.2310638427734375
2024-06-20T17:56:36.140+02:00,4611.83259575,-0.658447265625,0.4464569091796875,-0.389190673828125
2024-06-20T17:56:36.150+02:00,4611.84265375,-0.7298736572265625,0.4485321044921875,-0.2752227783203125
2024-06-20T17:56:36.160+02:00,4611.85271075,-0.9983062744140625,0.772705078125,-0.178558349609375
2024-06-20T17:56:36.170+02:00,4611.86276875,-1.45526123046875,1.119613647460938,-0.65789794921875
2024-06-20T17:56:36.181+02:00,4611.872825750001,-1.717864990234375,1.281005859375,-0.5065460205078125
2024-06-20T17:56:36.190+02:00,4611.88288375,-2.043365478515625,1.330368041992188,-0.5128631591796875
2024-06-20T17:56:36.200+02:00,4611.89294075,-2.207687377929688,1.282745361328125,-0.6385955810546875
2024-06-20T17:56:36.210+02:00,4611.902998750001,-2.239837646484375,1.107284545898438,-0.63482666015625
