loggingTime(txt),accelerometerTimestamp_sinceReboot(s),accelerometerAccelerationX(G),accelerometerAccelerationY(G),accelerometerAccelerationZ(G)
2024-06-20T17:37:59.943+02:00,3779.39528775,0.7378387451171875,-0.56842041015625,-0.3799591064453125
2024-06-20T17:37:59.944+02:00,3779.40534575,0.750640869140625,-0.7541351318359375,-0.313018798828125
2024-06-20T17:37:59.981+02:00,3779.41540275,0.742279052734375,-0.8878936767578125,-0.2215423583984375
2024-06-20T17:37:59.984+02:00,3779.42546075,0.714141845703125,-0.9566802978515625,-0.1216278076171875
2024-06-20T17:37:59.985+02:00,3779.43551875,0.69049072265625,-0.9838104248046875,-0.010467529296875
2024-06-20T17:37:59.985+02:00,3779.445576791667,0.6699066162109375,-0.96832275390625,0.0230712890625
2024-06-20T17:37:59.985+02:00,3779.455634791667,0.6604156494140625,-0.9696807861328125,-0.005096435546875
2024-06-20T17:37:59.986+02:00,3779.465692791667,0.6286163330078125,-1.0191650390625,-0.09625244140625
2024-06-20T17:37:59.986+02:00,3779.475750791667,0.585723876953125,-1.081314086914062,-0.152069091796875
2024-06-20T17:37:59.986+02:00,3779.485808791667,0.538726806640625,-1.099319458007812,-0.1309356689453125
2024-06-20T17:37:59.986+02:00,3779.495865791667,0.487884521484375,-1.0762939453125,-0.1688385009765625
2024-06-20T17:37:59.987+02:00,3779.505923791667,0.4614105224609375,-1.020950317382812,-0.2594757080078125
2024-06-20T17:37:59.987+02:00,3779.515981791667,0.4713592529296875,-0.9278564453125,-0.3672637939453125
2024-06-20T17:37:59.987+02:00,3779.526039791667,0.4931488037109375,-0.77996826171875,-0.42974853515625
2024-06-20T17:37:59.987+02:00,3779.536097791667,0.4974212646484375,-0.6500701904296875,-0.4538726806640625
2024-06-20T17:37:59.987+02:00,3779.546155791667,0.5032806396484375,-0.5391387939453125,-0.4495697021484375
2024-06-20T17:37:59.988+02:00,3779.556213791667,0.5088043212890625,-0.4047698974609375,-0.4297027587890625
2024-06-20T17:37:59.988+02:00,3779.566270791667,0.5184478759765625,-0.2602691650390625,-0.4065704345703125
2024-06-20T17:37:59.988+02:00,3779.576328791667,0.5591888427734375,-0.084320068359375,-0.3699188232421875
2024-06-20T17:37:59.988+02:00,3779.586386791667,0.61846923828125,0.0802001953125,-0.5085906982421875
2024-06-20T17:37:59.989+02:00,3779.596444791667,0.6708526611328125,0.1694183349609375,-0.7152252197265625
2024-06-20T17:37:59.989+02:00,3779.606502791667,0.694091796875,0.1797332763671875,-0.7634124755859375
2024-06-20T17:37:59.989+02:00,3779.616560791667,0.691131591796875,0.1425628662109375,-0.742156982421875
2024-06-20T17:37:59.989+02:00,3779.626618791667,0.6731109619140625,0.0695953369140625,-0.7843780517578125
2024-06-20T17:37:59.989+02:00,3779.636676791667,0.664520263671875,-0.0601348876953125,-0.912567138671875
2024-06-20T17:37:59.990+02:00,3779.646733791667,0.653900146484375,-0.188323974609375,-0.9993743896484375
2024-06-20T17:37:59.990+02:00,3779.656791791667,0.6441802978515625,-0.2518157958984375,-0.9528961181640625
2024-06-20T17:37:59.990+02:00,3779.666849791667,0.6254425048828125,-0.213958740234375,-0.8529510498046875
2024-06-20T17:37:59.990+02:00,3779.676907791667,0.6297760009765625,-0.185546875,-0.7751922607421875
2024-06-20T17:37:59.991+02:00,3779.686965791667,0.634063720703125,-0.25115966796875,-0.803924560546875
2024-06-20T17:37:59.991+02:00,3779.697023791667,0.6219482421875,-0.3214111328125,-0.8134002685546875
2024-06-20T17:37:59.991+02:00,3779.707081791667,0.599761962890625,-0.313873291015625,-0.7257843017578125
2024-06-20T17:37:59.991+02:00,3779.717138791667,0.587982177734375,-0.2804412841796875,-0.603759765625
2024-06-20T17:37:59.991+02:00,3779.727196791667,0.5787353515625,-0.2376251220703125,-0.5338287353515625
2024-06-20T17:37:59.992+02:00,3779.737254791667,0.57177734375,-0.19989013671875,-0.4743499755859375
2024-06-20T17:37:59.992+02:00,3779.747312791667,0.5833282470703125,-0.1580047607421875,-0.441864013671875
2024-06-20T17:37:59.992+02:00,3779.757370791667,0.605224609375,-0.1014862060546875,-0.43524169921875
2024-06-20T17:37:59.992+02:00,3779.767428791667,0.626800537109375,-0.091583251953125,-0.4186553955078125
2024-06-20T17:37:59.993+02:00,3779.777486791667,0.6431427001953125,-0.1572113037109375,-0.4213409423828125
2024-06-20T17:37:59.993+02:00,3779.787544791667,0.67071533203125,-0.2426300048828125,-0.4177703857421875
2024-06-20T17:37:59.993+02:00,3779.797601791667,0.7015533447265625,-0.289581298828125,-0.4263458251953125
2024-06-20T17:37:59.993+02:00,3779.807659791667,0.705078125,-0.3121337890625,-0.4376373291015625
2024-06-20T17:37:59.994+02:00,3779.817717791667,0.6941070556640625,-0.282440185546875,-0.4353790283203125
2024-06-20T17:37:59.994+02:00,3779.827775791667,0.6515350341796875,-0.2124786376953125,-0.4776763916015625
2024-06-20T17:37:59.994+02:00,3779.837833791667,0.592041015625,-0.180908203125,-0.5632781982421875
2024-06-20T17:37:59.994+02:00,3779.847891791667,0.5723114013671875,-0.2511749267578125,-0.6305694580078125
2024-06-20T17:37:59.994+02:00,3779.857949791667,0.6089019775390625,-0.398529052734375,-0.7049713134765625
2024-06-20T17:37:59.995+02:00,3779.868006791667,0.658111572265625,-0.4715423583984375,-0.683929443359375
2024-06-20T17:37:59.995+02:00,3779.878064791667,0.66717529296875,-0.5760955810546875,-0.6325836181640625
2024-06-20T17:37:59.995+02:00,3779.888122791667,0.659332275390625,-0.6951904296875,-0.520477294921875
2024-06-20T17:37:59.995+02:00,3779.898180791667,0.648529052734375,-0.8628692626953125,-0.34490966796875
2024-06-20T17:37:59.996+02:00,3779.908238791667,0.651580810546875,-1.085617065429688,-0.2876129150390625
2024-06-20T17:37:59.996+02:00,3779.918296791667,0.648162841796875,-1.18792724609375,-0.300872802734375
2024-06-20T17:37:59.996+02:00,3779.928354791667,0.6201171875,-1.006057739257812,-0.316497802734375
2024-06-20T17:37:59.996+02:00,3779.938412791667,0.6257171630859375,-0.7166748046875,-0.32568359375
2024-06-20T17:37:59.996+02:00,3779.948469791667,0.672271728515625,-0.49609375,-0.3056640625
2024-06-20T17:37:59.997+02:00,3779.958527791667,0.7449951171875,-0.394927978515625,-0.3461456298828125
2024-06-20T17:37:59.997+02:00,3779.968585791667,0.77166748046875,-0.467926025390625,-0.446563720703125
2024-06-20T17:37:59.997+02:00,3779.978643791667,0.7091522216796875,-0.64410400390625,-0.469940185546875
2024-06-20T17:37:59.997+02:00,3779.988701791667,0.604949951171875,-0.802825927734375,-0.3799591064453125
2024-06-20T17:37:59.998+02:00,3779.998759791667,0.53582763671875,-0.946319580078125,-0.2039337158203125
2024-06-20T17:37:59.998+02:00,3780.008817791667,0.5233154296875,-1.04345703125,-0.038543701171875
2024-06-20T17:37:59.998+02:00,3780.018874791667,0.547821044921875,-0.9864349365234375,-0.021636962890625
2024-06-20T17:37:59.998+02:00,3780.028932791667,0.57379150390625,-0.92742919921875,-0.127838134765625
2024-06-20T17:37:59.998+02:00,3780.038990791667,0.61456298828125,-0.8032684326171875,-0.252288818359375
2024-06-20T17:37:59.999+02:00,3780.049048791667,0.6459197998046875,-0.6358795166015625,-0.256103515625
2024-06-20T17:37:59.999+02:00,3780.059106791667,0.66534423828125,-0.6014862060546875,-0.13037109375
2024-06-20T17:37:59.999+02:00,3780.069164791667,0.67449951171875,-0.7092132568359375,-0.043853759765625
2024-06-20T17:37:59.999+02:00,3780.079222791667,0.643402099609375,-0.851348876953125,0.03851318359375
2024-06-20T17:37:59.999+02:00,3780.089279791667,0.622772216796875,-0.9470672607421875,0.0880889892578125
2024-06-20T17:38:00.000+02:00,3780.099337791667,0.613861083984375,-0.9928131103515625,0.0069427490234375
2024-06-20T17:38:00.000+02:00,3780.109395791667,0.5873565673828125,-0.9363861083984375,-0.0088348388671875
2024-06-20T17:38:00.000+02:00,3780.119453791667,0.57769775390625,-0.8350372314453125,0.0023345947265625
2024-06-20T17:38:00.000+02:00,3780.129511791667,0.584442138671875,-0.8051300048828125,0.0349578857421875
2024-06-20T17:38:00.001+02:00,3780.139569791667,0.5971527099609375,-0.842132568359375,0.128265380859375
2024-06-20T17:38:00.001+02:00,3780.149627791667,0.5812835693359375,-0.9016265869140625,0.201568603515625
2024-06-20T17:38:00.001+02:00,3780.159685791667,0.54766845703125,-0.9212188720703125,0.25787353515625
2024-06-20T17:38:00.001+02:00,3780.169742791667,0.5231475830078125,-0.887847900390625,0.2566070556640625
2024-06-20T17:38:00.002+02:00,3780.179800791667,0.5095367431640625,-0.8497467041015625,0.166839599609375
2024-06-20T17:38:00.002+02:00,3780.189858791667,0.5155181884765625,-0.8203277587890625,0.2152099609375
2024-06-20T17:38:00.002+02:00,3780.199916791667,0.519866943359375,-0.821014404296875,0.2840576171875
2024-06-20T17:38:00.002+02:00,3780.209974791667,0.5372314453125,-0.8225555419921875,0.3425445556640625
2024-06-20T17:38:00.003+02:00,3780.220032791667,0.5722503662109375,-0.8610992431640625,0.3624725341796875
2024-06-20T17:38:00.003+02:00,3780.230090791667,0.5825653076171875,-0.9139556884765625,0.2816314697265625
2024-06-20T17:38:00.003+02:00,3780.240147791667,0.569366455078125,-0.8854522705078125,0.20343017578125
2024-06-20T17:38:00.003+02:00,3780.250205791667,0.5504913330078125,-0.81341552734375,0.12750244140625
2024-06-20T17:38:00.004+02:00,3780.260263791667,0.5497283935546875,-0.767242431640625,0.094940185546875
2024-06-20T17:38:00.004+02:00,3780.270321791667,0.55816650390625,-0.753570556640625,0.1142578125
2024-06-20T17:38:00.004+02:00,3780.280379791667,0.56329345703125,-0.78814697265625,0.146881103515625
2024-06-20T17:38:00.004+02:00,3780.290437791667,0.56011962890625,-0.8509521484375,0.1779327392578125
2024-06-20T17:38:00.004+02:00,3780.300495791667,0.561431884765625,-0.8986358642578125,0.190521240234375
2024-06-20T17:38:00.005+02:00,3780.310552791667,0.5600738525390625,-0.92303466796875,0.1620025634765625
2024-06-20T17:38:00.005+02:00,3780.320610791667,0.5448760986328125,-0.919036865234375,0.1598358154296875
2024-06-20T17:38:00.005+02:00,3780.330668791667,0.5457611083984375,-0.8755340576171875,0.142181396484375
2024-06-20T17:38:00.005+02:00,3780.340726791667,0.5618896484375,-0.77178955078125,0.1175537109375
2024-06-20T17:38:00.006+02:00,3780.350784791667,0.5833587646484375,-0.69390869140625,0.0934906005859375
2024-06-20T17:38:00.006+02:00,3780.360842791667,0.6090545654296875,-0.682586669921875,0.0955352783203125
2024-06-20T17:38:00.006+02:00,3780.370900791667,0.6155242919921875,-0.7217559814453125,0.1070404052734375
2024-06-20T17:38:00.006+02:00,3780.380957791667,0.6267242431640625,-0.73675537109375,0.129058837890625
2024-06-20T17:38:00.006+02:00,3780.391015791667,0.620635986328125,-0.767852783203125,0.1450347900390625
2024-06-20T17:38:00.007+02:00,3780.401073791667,0.615478515625,-0.809967041015625,0.13983154296875
2024-06-20T17:38:00.007+02:00,3780.411131791667,0.60052490234375,-0.819671630859375,0.15020751953125
2024-06-20T17:38:00.007+02:00,3780.421189791667,0.58154296875,-0.7984466552734375,0.1354827880859375
2024-06-20T17:38:00.007+02:00,3780.431247791667,0.573883056640625,-0.833465576171875,0.1483612060546875
2024-06-20T17:38:00.008+02:00,3780.441305875,0.567138671875,-0.960235595703125,0.173919677734375
2024-06-20T17:38:00.008+02:00,3780.451363875,0.5673370361328125,-1.026123046875,0.198883056640625
2024-06-20T17:38:00.008+02:00,3780.461420875,0.5629425048828125,-0.9779510498046875,0.199462890625
2024-06-20T17:38:00.008+02:00,3780.471478875,0.5347747802734375,-0.9279327392578125,0.1176910400390625
2024-06-20T17:38:00.009+02:00,3780.481536875,0.5139312744140625,-0.89605712890625,0.008209228515625
2024-06-20T17:38:00.009+02:00,3780.491594875,0.527984619140625,-0.8973388671875,-0.0503387451171875
2024-06-20T17:38:00.009+02:00,3780.501652875,0.5523223876953125,-0.9519500732421875,-0.0808258056640625
2024-06-20T17:38:00.009+02:00,3780.511710875,0.553009033203125,-0.98272705078125,-0.0533447265625
2024-06-20T17:38:00.009+02:00,3780.521768875,0.54644775390625,-0.9972076416015625,-0.0226287841796875
2024-06-20T17:38:00.010+02:00,3780.531825875,0.542266845703125,-0.9866790771484375,-0.054046630859375
2024-06-20T17:38:00.010+02:00,3780.541883875,0.5517120361328125,-0.95458984375,-0.0630340576171875
2024-06-20T17:38:00.010+02:00,3780.551941875,0.56414794921875,-0.8913421630859375,-0.0806121826171875
2024-06-20T17:38:00.010+02:00,3780.561999875,0.5867919921875,-0.7930755615234375,-0.113525390625
2024-06-20T17:38:00.011+02:00,3780.572057875,0.62408447265625,-0.6903076171875,-0.1905975341796875
2024-06-20T17:38:00.011+02:00,3780.582115875,0.6604461669921875,-0.617156982421875,-0.281524658203125
2024-06-20T17:38:00.011+02:00,3780.592173875,0.68817138671875,-0.554840087890625,-0.35400390625
2024-06-20T17:38:00.012+02:00,3780.602230875,0.7117156982421875,-0.4767303466796875,-0.4083709716796875
2024-06-20T17:38:00.012+02:00,3780.612288875,0.7316436767578125,-0.4306488037109375,-0.4082794189453125
2024-06-20T17:38:00.012+02:00,3780.622346875,0.7311248779296875,-0.451019287109375,-0.3595733642578125
2024-06-20T17:38:00.012+02:00,3780.632404875,0.7049407958984375,-0.473846435546875,-0.3161773681640625
2024-06-20T17:38:00.012+02:00,3780.642462875,0.663665771484375,-0.4353790283203125,-0.3062744140625
2024-06-20T17:38:00.013+02:00,3780.652520875,0.6347503662109375,-0.399810791015625,-0.291290283203125
2024-06-20T17:38:00.013+02:00,3780.662578875,0.6232452392578125,-0.3914642333984375,-0.3293914794921875
2024-06-20T17:38:00.013+02:00,3780.672635875,0.626861572265625,-0.4105224609375,-0.447845458984375
2024-06-20T17:38:00.014+02:00,3780.682693875,0.6312713623046875,-0.4995574951171875,-0.507080078125
2024-06-20T17:38:00.014+02:00,3780.692751875,0.618621826171875,-0.5996551513671875,-0.4997100830078125
2024-06-20T17:38:00.014+02:00,3780.702809875,0.59161376953125,-0.66796875,-0.4405975341796875
2024-06-20T17:38:00.015+02:00,3780.712867875,0.5617828369140625,-0.77789306640625,-0.301513671875
2024-06-20T17:38:00.015+02:00,3780.722925875,0.53857421875,-0.946441650390625,-0.270355224609375
2024-06-20T17:38:00.015+02:00,3780.732983875,0.5195770263671875,-1.016448974609375,-0.2762908935546875
2024-06-20T17:38:00.015+02:00,3780.743040875,0.5100860595703125,-0.8996124267578125,-0.2171173095703125
2024-06-20T17:38:00.016+02:00,3780.753098875,0.5153350830078125,-0.7312469482421875,-0.206024169921875
2024-06-20T17:38:00.016+02:00,3780.763156875,0.534210205078125,-0.628875732421875,-0.343109130859375
2024-06-20T17:38:00.016+02:00,3780.773214875,0.5519561767578125,-0.550537109375,-0.5521087646484375
2024-06-20T17:38:00.016+02:00,3780.783272875,0.560211181640625,-0.4265899658203125,-0.676116943359375
2024-06-20T17:38:00.016+02:00,3780.793330875,0.55133056640625,-0.25677490234375,-0.7295684814453125
2024-06-20T17:38:00.017+02:00,3780.803388875,0.5312957763671875,-0.1719818115234375,-0.8295440673828125
2024-06-20T17:38:00.017+02:00,3780.813445875,0.5016632080078125,-0.2366790771484375,-0.857452392578125
2024-06-20T17:38:00.017+02:00,3780.823503875,0.4636688232421875,-0.28582763671875,-0.834259033203125
2024-06-20T17:38:00.017+02:00,3780.833561875,0.4123992919921875,-0.320281982421875,-0.74249267578125
2024-06-20T17:38:00.017+02:00,3780.843619875,0.36212158203125,-0.478057861328125,-0.7043914794921875
2024-06-20T17:38:00.018+02:00,3780.853677875,0.3385467529296875,-0.80517578125,-0.78240966796875
2024-06-20T17:38:00.018+02:00,3780.863735875,0.3331298828125,-1.075729370117188,-0.7458038330078125
2024-06-20T17:38:00.018+02:00,3780.873793875,0.3285980224609375,-1.123031616210938,-0.6266937255859375
2024-06-20T17:38:00.018+02:00,3780.883850875,0.337799072265625,-1.019393920898438,-0.5363311767578125
2024-06-20T17:38:00.019+02:00,3780.893907916667,0.4045257568359375,-0.887847900390625,-0.52459716796875
2024-06-20T17:38:00.019+02:00,3780.979224375,0.687042236328125,-0.48760986328125,-0.523773193359375
2024-06-20T17:38:00.019+02:00,3780.989282375,0.6375885009765625,-0.721588134765625,-0.5856170654296875
2024-06-20T17:38:00.020+02:00,3780.999340375,0.5420989990234375,-0.866729736328125,-0.567718505859375
2024-06-20T17:38:00.020+02:00,3781.009398375,0.4445037841796875,-0.960357666015625,-0.4853668212890625
2024-06-20T17:38:00.020+02:00,3781.019455375,0.37744140625,-0.9234466552734375,-0.5098419189453125
2024-06-20T17:38:00.020+02:00,3781.029513375,0.3611602783203125,-0.770355224609375,-0.60791015625
2024-06-20T17:38:00.021+02:00,3781.039571375,0.4212493896484375,-0.5221099853515625,-0.756683349609375
2024-06-20T17:38:00.021+02:00,3781.049629375,0.5324859619140625,-0.2528228759765625,-0.9100189208984375
2024-06-20T17:38:00.021+02:00,3781.059687375,0.6265411376953125,-0.0495758056640625,-0.966522216796875
2024-06-20T17:38:00.021+02:00,3781.069745375,0.6347808837890625,0.0055389404296875,-1.027755737304688
2024-06-20T17:38:00.022+02:00,3781.079802375,0.54730224609375,-0.0951080322265625,-1.023910522460938
2024-06-20T17:38:00.022+02:00,3781.089860375,0.4430389404296875,-0.21405029296875,-0.8948211669921875
2024-06-20T17:38:00.022+02:00,3781.099918375,0.3765106201171875,-0.2818450927734375,-0.761962890625
2024-06-20T17:38:00.022+02:00,3781.109976375,0.3558197021484375,-0.3127593994140625,-0.6808013916015625
2024-06-20T17:38:00.023+02:00,3781.120034375,0.375732421875,-0.3221435546875,-0.630615234375
2024-06-20T17:38:00.023+02:00,3781.130092375,0.42364501953125,-0.2893829345703125,-0.65509033203125
2024-06-20T17:38:00.023+02:00,3781.140149375,0.4699249267578125,-0.18511962890625,-0.6694488525390625
2024-06-20T17:38:00.023+02:00,3781.150207375,0.487701416015625,-0.083953857421875,-0.7083740234375
2024-06-20T17:38:00.024+02:00,3781.160265375,0.4857330322265625,-0.0258636474609375,-0.7803497314453125
2024-06-20T17:38:00.024+02:00,3781.170323375,0.482666015625,-0.0045166015625,-0.797119140625
2024-06-20T17:38:00.024+02:00,3781.180381375,0.487457275390625,-0.0405731201171875,-0.7758941650390625
2024-06-20T17:38:00.025+02:00,3781.190439375,0.5081329345703125,-0.111419677734375,-0.6689605712890625
2024-06-20T17:38:00.025+02:00,3781.200497375,0.5570526123046875,-0.1610260009765625,-0.5469512939453125
2024-06-20T17:38:00.025+02:00,3781.210554375,0.621551513671875,-0.247467041015625,-0.498077392578125
2024-06-20T17:38:00.026+02:00,3781.220612375,0.6941680908203125,-0.3915557861328125,-0.4551544189453125
2024-06-20T17:38:00.027+02:00,3781.230670375,0.76409912109375,-0.5473480224609375,-0.465728759765625
2024-06-20T17:38:00.027+02:00,3781.240728375,0.8222808837890625,-0.6709747314453125,-0.5501251220703125
2024-06-20T17:38:00.027+02:00,3781.250786375,0.84375,-0.7308349609375,-0.6096038818359375
2024-06-20T17:38:00.028+02:00,3781.260844375,0.8309326171875,-0.739990234375,-0.5460052490234375
2024-06-20T17:38:00.028+02:00,3781.270901375,0.7906646728515625,-0.78741455078125,-0.43780517578125
2024-06-20T17:38:00.028+02:00,3781.280959375,0.740203857421875,-0.9134979248046875,-0.437469482421875
2024-06-20T17:38:00.028+02:00,3781.291017375,0.6914520263671875,-1.02703857421875,-0.3835906982421875
2024-06-20T17:38:00.029+02:00,3781.301075375,0.6641082763671875,-1.083419799804688,-0.172210693359375
2024-06-20T17:38:00.029+02:00,3781.311133375,0.67779541015625,-1.224151611328125,-0.1316070556640625
2024-06-20T17:38:00.029+02:00,3781.321191375,0.68853759765625,-1.45367431640625,-0.1130828857421875
2024-06-20T17:38:00.030+02:00,3781.331248375,0.665435791015625,-1.646575927734375,-0.1114654541015625
2024-06-20T17:38:00.030+02:00,3781.341306375,0.614410400390625,-1.73614501953125,-0.1695709228515625
2024-06-20T17:38:00.030+02:00,3781.351364375,0.555877685546875,-1.669342041015625,-0.2545166015625
2024-06-20T17:38:00.030+02:00,3781.361422375,0.52008056640625,-1.460403442382812,-0.365966796875
2024-06-20T17:38:00.030+02:00,3781.371480375,0.529510498046875,-1.25030517578125,-0.47796630859375
2024-06-20T17:38:00.031+02:00,3781.381538375,0.5707550048828125,-1.072006225585938,-0.463653564453125
2024-06-20T17:38:00.031+02:00,3781.391595375,0.612091064453125,-0.9829559326171875,-0.507781982421875
2024-06-20T17:38:00.031+02:00,3781.401653375,0.617034912109375,-0.985687255859375,-0.498138427734375
2024-06-20T17:38:00.031+02:00,3781.411711375,0.57427978515625,-0.77984619140625,-0.514556884765625
2024-06-20T17:38:00.032+02:00,3781.421769375,0.5111083984375,-0.559783935546875,-0.814208984375
2024-06-20T17:38:00.032+02:00,3781.431827375,0.42919921875,-0.4115142822265625,-0.8617401123046875
2024-06-20T17:38:00.032+02:00,3781.441886125,0.327911376953125,-0.32489013671875,-0.6921539306640625
2024-06-20T17:38:00.033+02:00,3781.451943125,0.2286529541015625,-0.540985107421875,-0.777191162109375
2024-06-20T17:38:00.033+02:00,3781.462001125,0.2442169189453125,-0.6738433837890625,-0.786285400390625
2024-06-20T17:38:00.033+02:00,3781.472059125,0.311126708984375,-0.56207275390625,-0.639434814453125
2024-06-20T17:38:00.033+02:00,3781.482117125,0.3565216064453125,-0.373748779296875,-0.486480712890625
2024-06-20T17:38:00.034+02:00,3781.492175125,0.3734130859375,-0.18133544921875,-0.5928192138671875
2024-06-20T17:38:00.034+02:00,3781.502233125,0.378509521484375,-0.0072174072265625,-0.842498779296875
2024-06-20T17:38:00.034+02:00,3781.512291125,0.366119384765625,0.0835418701171875,-0.9675750732421875
2024-06-20T17:38:00.034+02:00,3781.522348125,0.32806396484375,0.0374298095703125,-0.93133544921875
2024-06-20T17:38:00.035+02:00,3781.532406125,0.2764892578125,-0.142547607421875,-0.8130340576171875
2024-06-20T17:38:00.035+02:00,3781.542464125,0.3230438232421875,-0.2758331298828125,-0.621795654296875
2024-06-20T17:38:00.035+02:00,3781.552522125,0.3760223388671875,-0.3300628662109375,-0.638519287109375
2024-06-20T17:38:00.035+02:00,3781.562580125,0.380645751953125,-0.3554534912109375,-0.55096435546875
2024-06-20T17:38:00.036+02:00,3781.572638125,0.3950347900390625,-0.422149658203125,-0.3371124267578125
2024-06-20T17:38:00.036+02:00,3781.582695125,0.3996429443359375,-0.50518798828125,-0.368743896484375
2024-06-20T17:38:00.036+02:00,3781.592753125,0.4203338623046875,-0.60626220703125,-0.368988037109375
2024-06-20T17:38:00.036+02:00,3781.602811125,0.4646148681640625,-0.6159820556640625,-0.382293701171875
2024-06-20T17:38:00.036+02:00,3781.612869125,0.541778564453125,-0.5280609130859375,-0.429779052734375
2024-06-20T17:38:00.037+02:00,3781.622927125,0.63775634765625,-0.3909759521484375,-0.4896087646484375
2024-06-20T17:38:00.037+02:00,3781.632985125,0.7202301025390625,-0.2960052490234375,-0.5496368408203125
2024-06-20T17:38:00.037+02:00,3781.643042125,0.7740631103515625,-0.2298126220703125,-0.6239776611328125
2024-06-20T17:38:00.037+02:00,3781.653100125,0.7711334228515625,-0.1728057861328125,-0.6841278076171875
2024-06-20T17:38:00.038+02:00,3781.663158125,0.727935791015625,-0.1914215087890625,-0.621551513671875
2024-06-20T17:38:00.038+02:00,3781.673216125,0.6805419921875,-0.301971435546875,-0.5124359130859375
2024-06-20T17:38:00.038+02:00,3781.683274125,0.6472015380859375,-0.5008087158203125,-0.393798828125
2024-06-20T17:38:00.038+02:00,3781.693332125,0.62237548828125,-0.669677734375,-0.2868499755859375
2024-06-20T17:38:00.039+02:00,3781.703389125,0.607330322265625,-0.670989990234375,-0.245941162109375
2024-06-20T17:38:00.039+02:00,3781.713447125,0.5590667724609375,-0.526092529296875,-0.3166046142578125
2024-06-20T17:38:00.039+02:00,3781.723505125,0.4937896728515625,-0.3345794677734375,-0.5308837890625
2024-06-20T17:38:00.039+02:00,3781.733563125,0.4568634033203125,-0.1597442626953125,-0.7548675537109375
2024-06-20T17:38:00.040+02:00,3781.743621125,0.4630584716796875,-0.0277862548828125,-0.836578369140625
2024-06-20T17:38:00.040+02:00,3781.753679125,0.504150390625,0.038970947265625,-0.8487701416015625
2024-06-20T17:38:00.040+02:00,3781.763736125,0.547332763671875,0.006378173828125,-0.8570709228515625
2024-06-20T17:38:00.040+02:00,3781.773794125,0.5668182373046875,-0.106536865234375,-0.8222808837890625
2024-06-20T17:38:00.041+02:00,3781.783852125,0.5479278564453125,-0.185150146484375,-0.7353515625
2024-06-20T17:38:00.041+02:00,3781.793910125,0.5415496826171875,-0.19561767578125,-0.7640533447265625
2024-06-20T17:38:00.041+02:00,3781.803968125,0.578277587890625,-0.2084197998046875,-0.6027984619140625
2024-06-20T17:38:00.041+02:00,3781.814026125,0.6263885498046875,-0.194122314453125,-0.5251312255859375
2024-06-20T17:38:00.042+02:00,3781.824083125,0.73748779296875,-0.208038330078125,-0.70654296875
2024-06-20T17:38:00.042+02:00,3781.834141125,0.814361572265625,-0.1977996826171875,-0.62127685546875
2024-06-20T17:38:00.042+02:00,3781.844199125,0.8428192138671875,-0.1983184814453125,-0.625396728515625
2024-06-20T17:38:00.043+02:00,3781.854257125,0.80279541015625,-0.250244140625,-0.564300537109375
2024-06-20T17:38:00.043+02:00,3781.864315125,0.7300872802734375,-0.31146240234375,-0.4568023681640625
2024-06-20T17:38:00.044+02:00,3781.874373125,0.641998291015625,-0.294403076171875,-0.381561279296875
2024-06-20T17:38:00.044+02:00,3781.884430125,0.589080810546875,-0.2306671142578125,-0.3995513916015625
2024-06-20T17:38:00.044+02:00,3781.894488125,0.5974273681640625,-0.209228515625,-0.402374267578125
2024-06-20T17:38:00.044+02:00,3781.904546125,0.6636810302734375,-0.2024688720703125,-0.4087371826171875
2024-06-20T17:38:00.045+02:00,3781.914604125,0.753021240234375,-0.1782684326171875,-0.39166259765625
2024-06-20T17:38:00.045+02:00,3781.924662125,0.840972900390625,-0.1805877685546875,-0.386383056640625
2024-06-20T17:38:00.045+02:00,3781.934720125,0.8964996337890625,-0.2252044677734375,-0.4198760986328125
2024-06-20T17:38:00.045+02:00,3781.944777125,0.90576171875,-0.24920654296875,-0.4940948486328125
2024-06-20T17:38:00.046+02:00,3781.954835125,0.8636322021484375,-0.22991943359375,-0.5867462158203125
2024-06-20T17:38:00.046+02:00,3781.964893125,0.7971343994140625,-0.20892333984375,-0.6762542724609375
2024-06-20T17:38:00.046+02:00,3781.974951125,0.7366943359375,-0.19775390625,-0.7404022216796875
2024-06-20T17:38:00.046+02:00,3781.985009125,0.6968841552734375,-0.2328948974609375,-0.793060302734375
2024-06-20T17:38:00.046+02:00,3781.995067125,0.701141357421875,-0.27191162109375,-0.7978363037109375
2024-06-20T17:38:00.047+02:00,3782.005124125,0.754547119140625,-0.2808074951171875,-0.789581298828125
2024-06-20T17:38:00.047+02:00,3782.015182125,0.8318328857421875,-0.26580810546875,-0.7996826171875
2024-06-20T17:38:00.047+02:00,3782.1145025,-0.17205810546875,-0.330108642578125,-0.775787353515625
2024-06-20T17:38:00.047+02:00,3782.1245605,-0.173583984375,-0.3044586181640625,-0.80682373046875
2024-06-20T17:38:00.048+02:00,3782.1346185,-0.1793365478515625,-0.270263671875,-0.820770263671875
2024-06-20T17:38:00.048+02:00,3782.1446765,-0.1907806396484375,-0.2490997314453125,-0.8490753173828125
2024-06-20T17:38:00.048+02:00,3782.1547345,-0.205810546875,-0.2438201904296875,-0.869873046875
2024-06-20T17:38:00.048+02:00,3782.1647915,-0.2124481201171875,-0.2444000244140625,-0.869232177734375
2024-06-20T17:38:00.049+02:00,3782.1748495,-0.2058868408203125,-0.241485595703125,-0.8717498779296875
2024-06-20T17:38:00.049+02:00,3782.1849075,-0.2068023681640625,-0.25030517578125,-0.87908935546875
2024-06-20T17:38:00.049+02:00,3782.1949655,-0.223358154296875,-0.27703857421875,-0.86956787109375
2024-06-20T17:38:00.050+02:00,3782.2050225,-0.242919921875,-0.2891845703125,-0.8677215576171875
2024-06-20T17:38:00.050+02:00,3782.2150805,-0.251678466796875,-0.274139404296875,-0.8564300537109375
2024-06-20T17:38:00.050+02:00,3782.2251385,-0.2609405517578125,-0.2686614990234375,-0.8432769775390625
2024-06-20T17:38:00.051+02:00,3782.2351965,-0.271728515625,-0.28369140625,-0.848541259765625
2024-06-20T17:38:00.051+02:00,3782.2452545,-0.272613525390625,-0.2788238525390625,-0.8553466796875
2024-06-20T17:38:00.051+02:00,3782.2553115,-0.2715606689453125,-0.259124755859375,-0.85723876953125
2024-06-20T17:38:00.051+02:00,3782.2653695,-0.2707366943359375,-0.2518157958984375,-0.8659210205078125
2024-06-20T17:38:00.052+02:00,3782.2754275,-0.2668304443359375,-0.2501068115234375,-0.8682403564453125
2024-06-20T17:38:00.052+02:00,3782.2854855,-0.265625,-0.252227783203125,-0.8513031005859375
2024-06-20T17:38:00.052+02:00,3782.2955435,-0.26458740234375,-0.259002685546875,-0.846588134765625
2024-06-20T17:38:00.052+02:00,3782.3056005,-0.25860595703125,-0.26043701171875,-0.8503265380859375
2024-06-20T17:38:00.053+02:00,3782.3156585,-0.2484588623046875,-0.2541961669921875,-0.842864990234375
2024-06-20T17:38:00.053+02:00,3782.3257165,-0.2410125732421875,-0.2531585693359375,-0.8489837646484375
2024-06-20T17:38:00.053+02:00,3782.3357745,-0.2324981689453125,-0.2577667236328125,-0.849609375
2024-06-20T17:38:00.053+02:00,3782.3458325,-0.2168426513671875,-0.2659912109375,-0.8602447509765625
2024-06-20T17:38:00.054+02:00,3782.3558895,-0.196624755859375,-0.2552337646484375,-0.883026123046875
2024-06-20T17:38:00.054+02:00,3782.3659475,-0.179534912109375,-0.238006591796875,-0.9073944091796875
2024-06-20T17:38:00.054+02:00,3782.3760055,-0.171661376953125,-0.2421722412109375,-0.92572021484375
2024-06-20T17:38:00.054+02:00,3782.3860635,-0.1691436767578125,-0.252960205078125,-0.9694671630859375
2024-06-20T17:38:00.055+02:00,3782.3961205,-0.16650390625,-0.241424560546875,-0.9921112060546875
2024-06-20T17:38:00.055+02:00,3782.4061785,-0.17919921875,-0.21466064453125,-1.006561279296875
2024-06-20T17:38:00.055+02:00,3782.4162365,-0.2000732421875,-0.19287109375,-1.0443115234375
2024-06-20T17:38:00.055+02:00,3782.4262945,-0.2137298583984375,-0.16619873046875,-1.060653686523438
2024-06-20T17:38:00.056+02:00,3782.4363525,-0.2199249267578125,-0.1446990966796875,-1.056625366210938
2024-06-20T17:38:00.056+02:00,3782.446410625,-0.228851318359375,-0.1545867919921875,-1.038909912109375
2024-06-20T17:38:00.056+02:00,3782.456468625,-0.232574462890625,-0.1797027587890625,-1.014328002929688
2024-06-20T17:38:00.057+02:00,3782.466526625,-0.2352142333984375,-0.19537353515625,-0.9964752197265625
2024-06-20T17:38:00.057+02:00,3782.476584625,-0.2354888916015625,-0.2244873046875,-0.986053466796875
2024-06-20T17:38:00.057+02:00,3782.486642625,-0.22900390625,-0.2503662109375,-0.983551025390625
2024-06-20T17:38:00.057+02:00,3782.496699625,-0.217803955078125,-0.25115966796875,-0.977081298828125
2024-06-20T17:38:00.058+02:00,3782.506757625,-0.2071380615234375,-0.2409820556640625,-0.9696502685546875
2024-06-20T17:38:00.058+02:00,3782.516815625,-0.2100982666015625,-0.2378387451171875,-0.9615631103515625
2024-06-20T17:38:00.058+02:00,3782.526873625,-0.215179443359375,-0.2386627197265625,-0.96661376953125
2024-06-20T17:38:00.058+02:00,3782.536931625,-0.2218475341796875,-0.2378692626953125,-0.98223876953125
2024-06-20T17:38:00.059+02:00,3782.546988625,-0.2306976318359375,-0.2277069091796875,-0.9755096435546875
2024-06-20T17:38:00.059+02:00,3782.557046625,-0.2510223388671875,-0.211822509765625,-0.963623046875
2024-06-20T17:38:00.059+02:00,3782.567104625,-0.2584381103515625,-0.183349609375,-0.94854736328125
2024-06-20T17:38:00.060+02:00,3782.577162625,-0.257415771484375,-0.1534576416015625,-0.939361572265625
2024-06-20T17:38:00.060+02:00,3782.587219625,-0.2500152587890625,-0.137451171875,-0.92352294921875
2024-06-20T17:38:00.060+02:00,3782.597277625,-0.2463531494140625,-0.1307220458984375,-0.89447021484375
2024-06-20T17:38:00.061+02:00,3782.607335625,-0.2468109130859375,-0.134613037109375,-0.868560791015625
2024-06-20T17:38:00.061+02:00,3782.617393625,-0.249420166015625,-0.153228759765625,-0.841522216796875
2024-06-20T17:38:00.061+02:00,3782.627451625,-0.2457122802734375,-0.1660614013671875,-0.8315277099609375
2024-06-20T17:38:00.062+02:00,3782.637508625,-0.23681640625,-0.174346923828125,-0.832244873046875
2024-06-20T17:38:00.062+02:00,3782.647566625,-0.2282867431640625,-0.182861328125,-0.8343505859375
2024-06-20T17:38:00.062+02:00,3782.657624625,-0.218780517578125,-0.187408447265625,-0.8294525146484375
2024-06-20T17:38:00.062+02:00,3782.667682625,-0.2080841064453125,-0.178314208984375,-0.823150634765625
2024-06-20T17:38:00.063+02:00,3782.677739625,-0.208648681640625,-0.16668701171875,-0.8212432861328125
2024-06-20T17:38:00.063+02:00,3782.687797625,-0.2092437744140625,-0.14349365234375,-0.8240509033203125
2024-06-20T17:38:00.064+02:00,3782.697855625,-0.20037841796875,-0.12554931640625,-0.8314056396484375
2024-06-20T17:38:00.064+02:00,3782.707913625,-0.18304443359375,-0.1242523193359375,-0.84527587890625
2024-06-20T17:38:00.064+02:00,3782.717971625,-0.1650543212890625,-0.131805419921875,-0.868194580078125
2024-06-20T17:38:00.064+02:00,3782.728028625,-0.1515045166015625,-0.136688232421875,-0.8901519775390625
2024-06-20T17:38:00.065+02:00,3782.738086625,-0.141937255859375,-0.13653564453125,-0.924102783203125
2024-06-20T17:38:00.065+02:00,3782.748144625,-0.138031005859375,-0.131256103515625,-0.9417877197265625
2024-06-20T17:38:00.065+02:00,3782.758202625,-0.147613525390625,-0.1239776611328125,-0.958831787109375
2024-06-20T17:38:00.066+02:00,3782.768260625,-0.1624603271484375,-0.1212158203125,-0.9872283935546875
2024-06-20T17:38:00.066+02:00,3782.778317625,-0.1651458740234375,-0.1080322265625,-0.9730224609375
2024-06-20T17:38:00.066+02:00,3782.788375625,-0.159515380859375,-0.06787109375,-0.9457244873046875
2024-06-20T17:38:00.066+02:00,3782.798433625,-0.1580810546875,-0.0345611572265625,-0.9485626220703125
2024-06-20T17:38:00.067+02:00,3782.808491625,-0.1565093994140625,-0.01434326171875,-0.9553375244140625
2024-06-20T17:38:00.067+02:00,3782.818548625,-0.1453704833984375,-0.0101776123046875,-0.9726104736328125
2024-06-20T17:38:00.067+02:00,3782.828606625,-0.119781494140625,-0.0164947509765625,-0.974517822265625
2024-06-20T17:38:00.067+02:00,3782.838664625,-0.092529296875,-0.02789306640625,-0.9908599853515625
2024-06-20T17:38:00.067+02:00,3782.848722625,-0.066619873046875,-0.0486907958984375,-1.023056030273438
2024-06-20T17:38:00.068+02:00,3782.858780625,-0.0576934814453125,-0.0623321533203125,-1.030776977539062
2024-06-20T17:38:00.068+02:00,3782.868837625,-0.0665130615234375,-0.0647735595703125,-1.041275024414062
2024-06-20T17:38:00.068+02:00,3782.878895625,-0.07415771484375,-0.04840087890625,-1.013381958007812
2024-06-20T17:38:00.068+02:00,3782.888953625,-0.0821533203125,-0.0191650390625,-0.986724853515625
2024-06-20T17:38:00.069+02:00,3782.899011625,-0.085601806640625,0.006439208984375,-0.99151611328125
2024-06-20T17:38:00.069+02:00,3782.909069625,-0.075347900390625,0.044525146484375,-1.010406494140625
2024-06-20T17:38:00.069+02:00,3782.919126625,-0.0668792724609375,0.09893798828125,-0.9999237060546875
2024-06-20T17:38:00.069+02:00,3782.929184625,-0.0799713134765625,0.1173095703125,-0.9983367919921875
2024-06-20T17:38:00.069+02:00,3782.939242625,-0.0878753662109375,0.1025848388671875,-1.000289916992188
2024-06-20T17:38:00.070+02:00,3782.949300625,-0.0780487060546875,0.0872344970703125,-0.9741058349609375
2024-06-20T17:38:00.070+02:00,3782.959357625,-0.0647735595703125,0.076446533203125,-0.9598236083984375
2024-06-20T17:38:00.070+02:00,3782.969415625,-0.0579986572265625,0.0747833251953125,-0.9548797607421875
2024-06-20T17:38:00.070+02:00,3782.979473625,-0.0618896484375,0.1002044677734375,-0.951080322265625
2024-06-20T17:38:00.070+02:00,3782.989531625,-0.0829010009765625,0.1379547119140625,-0.9400634765625
2024-06-20T17:38:00.071+02:00,3782.999589625,-0.1154632568359375,0.166717529296875,-0.9229736328125
2024-06-20T17:38:00.071+02:00,3783.009646625,-0.1492156982421875,0.204071044921875,-0.9105682373046875
2024-06-20T17:38:00.071+02:00,3783.019704625,-0.173126220703125,0.223602294921875,-0.8896484375
2024-06-20T17:38:00.071+02:00,3783.029762625,-0.181427001953125,0.2196044921875,-0.8878021240234375
2024-06-20T17:38:00.071+02:00,3783.039820625,-0.162322998046875,0.2057342529296875,-0.8802337646484375
2024-06-20T17:38:00.072+02:00,3783.049878625,-0.1401519775390625,0.200103759765625,-0.8734283447265625
2024-06-20T17:38:00.072+02:00,3783.059935625,-0.1364593505859375,0.2027130126953125,-0.8698883056640625
2024-06-20T17:38:00.072+02:00,3783.069993625,-0.1522674560546875,0.2099151611328125,-0.86614990234375
2024-06-20T17:38:00.072+02:00,3783.080051625,-0.170989990234375,0.208160400390625,-0.855438232421875
2024-06-20T17:38:00.073+02:00,3783.090109625,-0.1935882568359375,0.20611572265625,-0.8386077880859375
2024-06-20T17:38:00.073+02:00,3783.100166625,-0.21478271484375,0.209381103515625,-0.797393798828125
2024-06-20T17:38:00.073+02:00,3783.110224625,-0.233673095703125,0.21893310546875,-0.7655487060546875
2024-06-20T17:38:00.073+02:00,3783.120282625,-0.247344970703125,0.2294464111328125,-0.7206268310546875
2024-06-20T17:38:00.073+02:00,3783.130340625,-0.254730224609375,0.246246337890625,-0.673095703125
2024-06-20T17:38:00.074+02:00,3783.140398625,-0.254302978515625,0.2899627685546875,-0.6572418212890625
2024-06-20T17:38:00.074+02:00,3783.23883425,0.297576904296875,0.19537353515625,-0.8277740478515625
2024-06-20T17:38:00.074+02:00,3783.24889225,0.250274658203125,0.2253875732421875,-0.891265869140625
2024-06-20T17:38:00.074+02:00,3783.25895025,0.214599609375,0.261932373046875,-0.9440460205078125
2024-06-20T17:38:00.075+02:00,3783.26900725,0.2097625732421875,0.262359619140625,-0.97357177734375
2024-06-20T17:38:00.075+02:00,3783.27906525,0.208770751953125,0.1772003173828125,-0.995208740234375
2024-06-20T17:38:00.075+02:00,3783.28912325,0.213897705078125,-0.00872802734375,-0.978057861328125
2024-06-20T17:38:00.075+02:00,3783.29918125,0.2194061279296875,-0.1605987548828125,-0.9715576171875
2024-06-20T17:38:00.076+02:00,3783.30923825,0.214263916015625,-0.1552581787109375,-0.972442626953125
2024-06-20T17:38:00.076+02:00,3783.31929625,0.236480712890625,0.094085693359375,-1.029129028320312
2024-06-20T17:38:00.077+02:00,3783.32935425,0.3145751953125,0.41693115234375,-1.142547607421875
2024-06-20T17:38:00.077+02:00,3783.33941225,0.3679962158203125,0.612548828125,-1.228408813476562
2024-06-20T17:38:00.077+02:00,3783.34946925,0.285003662109375,0.60198974609375,-1.28173828125
2024-06-20T17:38:00.077+02:00,3783.35952725,0.1534576416015625,0.3988189697265625,-1.315719604492188
2024-06-20T17:38:00.078+02:00,3783.36958525,0.1096954345703125,0.1802520751953125,-1.285049438476562
2024-06-20T17:38:00.078+02:00,3783.37964325,0.126434326171875,0.0436859130859375,-1.248977661132812
2024-06-20T17:38:00.078+02:00,3783.38970125,0.1530609130859375,-0.042877197265625,-1.21270751953125
2024-06-20T17:38:00.078+02:00,3783.39975825,0.161102294921875,-0.09564208984375,-1.185028076171875
2024-06-20T17:38:00.079+02:00,3783.40981625,0.139892578125,-0.097808837890625,-1.178863525390625
2024-06-20T17:38:00.079+02:00,3783.41987425,0.10736083984375,-0.0298919677734375,-1.200546264648438
2024-06-20T17:38:00.079+02:00,3783.42993125,0.072601318359375,0.05877685546875,-1.193832397460938
2024-06-20T17:38:00.079+02:00,3783.43998925,0.043853759765625,0.1342010498046875,-1.208297729492188
2024-06-20T17:38:00.080+02:00,3783.45004825,0.01678466796875,0.1818695068359375,-1.196456909179688
2024-06-20T17:38:00.080+02:00,3783.46010625,-0.000640869140625,0.187347412109375,-1.172622680664062
2024-06-20T17:38:00.080+02:00,3783.47016325,-0.0019073486328125,0.1372833251953125,-1.140304565429688
2024-06-20T17:38:00.080+02:00,3783.48022125,0.0298919677734375,0.0602569580078125,-1.106185913085938
2024-06-20T17:38:00.081+02:00,3783.49027925,0.0688323974609375,0.0053863525390625,-1.063278198242188
2024-06-20T17:38:00.081+02:00,3783.50033725,0.0856170654296875,0.0010528564453125,-1.0472412109375
2024-06-20T17:38:00.081+02:00,3783.51039525,0.09185791015625,0.05804443359375,-1.022796630859375
2024-06-20T17:38:00.081+02:00,3783.52045225,0.0819244384765625,0.13897705078125,-1.0269775390625
2024-06-20T17:38:00.081+02:00,3783.53051025,0.0569610595703125,0.204437255859375,-1.044464111328125
2024-06-20T17:38:00.082+02:00,3783.54056825,0.0339813232421875,0.23895263671875,-1.059036254882812
2024-06-20T17:38:00.082+02:00,3783.55062525,0.019500732421875,0.23931884765625,-1.027740478515625
2024-06-20T17:38:00.082+02:00,3783.56068325,0.0076751708984375,0.218170166015625,-1.006179809570312
2024-06-20T17:38:00.082+02:00,3783.57074125,-0.0063323974609375,0.1903533935546875,-0.9480743408203125
2024-06-20T17:38:00.083+02:00,3783.58079925,-0.028961181640625,0.1481475830078125,-0.9037322998046875
2024-06-20T17:38:00.083+02:00,3783.59085725,-0.0417938232421875,0.0925750732421875,-0.82598876953125
2024-06-20T17:38:00.083+02:00,3783.60091425,-0.0291900634765625,0.011444091796875,-0.7418212890625
2024-06-20T17:38:00.083+02:00,3783.61097225,0.01092529296875,-0.071624755859375,-0.6854400634765625
2024-06-20T17:38:00.084+02:00,3783.62103025,0.0677032470703125,-0.1390380859375,-0.641082763671875
2024-06-20T17:38:00.084+02:00,3783.63108825,0.1459197998046875,-0.181488037109375,-0.647430419921875
2024-06-20T17:38:00.084+02:00,3783.64114525,0.2272491455078125,-0.1710357666015625,-0.6708221435546875
2024-06-20T17:38:00.084+02:00,3783.65120325,0.2945556640625,-0.137176513671875,-0.7085418701171875
2024-06-20T17:38:00.085+02:00,3783.66126125,0.3358917236328125,-0.11309814453125,-0.749267578125
2024-06-20T17:38:00.085+02:00,3783.67131825,0.35919189453125,-0.095123291015625,-0.7892608642578125
2024-06-20T17:38:00.085+02:00,3783.68137625,0.376312255859375,-0.0842132568359375,-0.8206939697265625
2024-06-20T17:38:00.085+02:00,3783.69143425,0.3877716064453125,-0.0889129638671875,-0.866546630859375
2024-06-20T17:38:00.085+02:00,3783.70149225,0.3939056396484375,-0.0835418701171875,-0.9529266357421875
2024-06-20T17:38:00.086+02:00,3783.71154925,0.3977508544921875,-0.048858642578125,-1.012374877929688
2024-06-20T17:38:00.086+02:00,3783.72160725,0.3879852294921875,0.02850341796875,-1.079879760742188
2024-06-20T17:38:00.086+02:00,3783.73166525,0.3550567626953125,0.1425628662109375,-1.1239013671875
2024-06-20T17:38:00.086+02:00,3783.74172325,0.2984619140625,0.2438812255859375,-1.145370483398438
2024-06-20T17:38:00.086+02:00,3783.75178025,0.2286529541015625,0.263702392578125,-1.20892333984375
2024-06-20T17:38:00.087+02:00,3783.76183825,0.19903564453125,0.2313995361328125,-1.226211547851562
2024-06-20T17:38:00.087+02:00,3783.77189625,0.20281982421875,0.1890106201171875,-1.198760986328125
2024-06-20T17:38:00.087+02:00,3783.78195425,0.20098876953125,0.1343994140625,-1.175262451171875
2024-06-20T17:38:00.087+02:00,3783.79201225,0.1848907470703125,0.068450927734375,-1.172836303710938
2024-06-20T17:38:00.088+02:00,3783.80206925,0.1636199951171875,0.0125732421875,-1.181564331054688
2024-06-20T17:38:00.088+02:00,3783.81212725,0.1275482177734375,-0.0284881591796875,-1.190902709960938
2024-06-20T17:38:00.088+02:00,3783.82218525,0.0720062255859375,-0.0661773681640625,-1.193771362304688
2024-06-20T17:38:00.088+02:00,3783.83224325,0.00592041015625,-0.082427978515625,-1.178985595703125
2024-06-20T17:38:00.088+02:00,3783.84230025,-0.03875732421875,-0.0977935791015625,-1.15069580078125
2024-06-20T17:38:00.089+02:00,3783.85235825,-0.0519561767578125,-0.1374969482421875,-1.11822509765625
2024-06-20T17:38:00.089+02:00,3783.86241625,-0.0333709716796875,-0.183837890625,-1.080718994140625
2024-06-20T17:38:00.089+02:00,3783.87247425,0.0173187255859375,-0.233642578125,-1.055709838867188
2024-06-20T17:38:00.089+02:00,3783.88253125,0.0813446044921875,-0.270599365234375,-1.037704467773438
2024-06-20T17:38:00.089+02:00,3783.89258925,0.1325225830078125,-0.28778076171875,-1.035125732421875
2024-06-20T17:38:00.090+02:00,3783.90264725,0.1629486083984375,-0.2713623046875,-1.04449462890625
2024-06-20T17:38:00.090+02:00,3783.91270525,0.1891021728515625,-0.2476959228515625,-1.0712890625
2024-06-20T17:38:00.090+02:00,3783.92276225,0.2143707275390625,-0.216705322265625,-1.104293823242188
2024-06-20T17:38:00.090+02:00,3783.93282025,0.219970703125,-0.1805572509765625,-1.1243896484375
2024-06-20T17:38:00.090+02:00,3783.94287825,0.2126617431640625,-0.1490478515625,-1.137313842773438
2024-06-20T17:38:00.091+02:00,3783.95293625,0.1938934326171875,-0.136016845703125,-1.151565551757812
2024-06-20T17:38:00.091+02:00,3783.96299325,0.175262451171875,-0.12994384765625,-1.15167236328125
2024-06-20T17:38:00.091+02:00,3783.97305125,0.16357421875,-0.1324005126953125,-1.141036987304688
2024-06-20T17:38:00.091+02:00,3783.98310925,0.15460205078125,-0.1549224853515625,-1.062820434570312
2024-06-20T17:38:00.092+02:00,3783.99316725,0.144317626953125,-0.240478515625,-1.075958251953125
2024-06-20T17:38:00.092+02:00,3784.00322425,0.0646820068359375,-0.240753173828125,-0.916717529296875
2024-06-20T17:38:00.092+02:00,3784.01328225,0.099853515625,-0.1894378662109375,-0.94525146484375
2024-06-20T17:38:00.092+02:00,3784.02334025,-0.4337005615234375,0.0347747802734375,-0.6596527099609375
2024-06-20T17:38:00.092+02:00,3784.03339725,0.24749755859375,0.0097808837890625,-1.278488159179688
2024-06-20T17:38:00.093+02:00,3784.04345525,0.3680267333984375,-0.1225433349609375,-0.960235595703125
2024-06-20T17:38:00.093+02:00,3784.05351325,0.1295318603515625,0.006378173828125,-0.8955230712890625
2024-06-20T17:38:00.093+02:00,3784.06357125,0.27496337890625,-0.101776123046875,-0.86773681640625
2024-06-20T17:38:00.093+02:00,3784.07362925,0.4262847900390625,-0.313995361328125,-0.850830078125
2024-06-20T17:38:00.094+02:00,3784.08368625,0.3580322265625,-0.412567138671875,-0.8134613037109375
2024-06-20T17:38:00.094+02:00,3784.09374425,0.1925506591796875,-0.4234466552734375,-0.8074188232421875
2024-06-20T17:38:00.094+02:00,3784.10380225,0.120452880859375,-0.38671875,-0.8258209228515625
2024-06-20T17:38:00.095+02:00,3784.11385925,0.1022491455078125,-0.3996734619140625,-0.8829498291015625
2024-06-20T17:38:00.095+02:00,3784.12391725,0.0091552734375,-0.4710235595703125,-0.8659210205078125
2024-06-20T17:38:00.095+02:00,3784.13397525,-0.0511322021484375,-0.549224853515625,-0.8416748046875
2024-06-20T17:38:00.095+02:00,3784.14403325,-0.009918212890625,-0.5314788818359375,-0.82568359375
2024-06-20T17:38:00.096+02:00,3784.15409025,-0.02777099609375,-0.4793853759765625,-0.8338775634765625
2024-06-20T17:38:00.096+02:00,3784.16414825,-0.023895263671875,-0.36456298828125,-0.8902740478515625
2024-06-20T17:38:00.096+02:00,3784.17420625,-0.0215301513671875,-0.2589874267578125,-0.930877685546875
2024-06-20T17:38:00.096+02:00,3784.18426425,-0.022857666015625,-0.1977386474609375,-0.95123291015625
2024-06-20T17:38:00.096+02:00,3784.19432225,-0.0307159423828125,-0.19036865234375,-0.9217529296875
2024-06-20T17:38:00.097+02:00,3784.20437925,-0.0226287841796875,-0.23956298828125,-0.8656158447265625
2024-06-20T17:38:00.097+02:00,3784.21443725,-0.0138397216796875,-0.325927734375,-0.77288818359375
2024-06-20T17:38:00.097+02:00,3784.22449525,0.03314208984375,-0.4524688720703125,-0.6781005859375
2024-06-20T17:38:00.097+02:00,3784.23455225,0.1634368896484375,-0.5871429443359375,-0.5697174072265625
2024-06-20T17:38:00.098+02:00,3784.24461025,0.3159637451171875,-0.64727783203125,-0.4212493896484375
2024-06-20T17:38:00.098+02:00,3784.254668041667,0.128662109375,-0.4338836669921875,-0.5118865966796875
2024-06-20T17:38:00.098+02:00,3784.344885375,0.1051177978515625,-0.485931396484375,-0.8373870849609375
2024-06-20T17:38:00.098+02:00,3784.354942375,0.12542724609375,-0.4904327392578125,-0.8345794677734375
2024-06-20T17:38:00.099+02:00,3784.365000375,0.136077880859375,-0.4920654296875,-0.8365936279296875
2024-06-20T17:38:00.099+02:00,3784.375058375,0.107208251953125,-0.5200653076171875,-0.818267822265625
2024-06-20T17:38:00.099+02:00,3784.385116375,0.0697479248046875,-0.5448150634765625,-0.783294677734375
2024-06-20T17:38:00.099+02:00,3784.395173375,0.0366973876953125,-0.5607147216796875,-0.7587432861328125
2024-06-20T17:38:00.099+02:00,3784.405231375,0.0214385986328125,-0.5716400146484375,-0.7396697998046875
2024-06-20T17:38:00.100+02:00,3784.415289375,0.0260162353515625,-0.57196044921875,-0.728515625
2024-06-20T17:38:00.100+02:00,3784.425347375,0.0481414794921875,-0.5812530517578125,-0.7255859375
2024-06-20T17:38:00.100+02:00,3784.435404375,0.0813446044921875,-0.604156494140625,-0.7217559814453125
2024-06-20T17:38:00.100+02:00,3784.44546325,0.1072540283203125,-0.63824462890625,-0.734344482421875
2024-06-20T17:38:00.101+02:00,3784.45552125,0.117095947265625,-0.6664581298828125,-0.7649993896484375
2024-06-20T17:38:00.101+02:00,3784.46557925,0.1073760986328125,-0.6534576416015625,-0.8070526123046875
2024-06-20T17:38:00.101+02:00,3784.47563625,0.102935791015625,-0.640838623046875,-0.8321990966796875
2024-06-20T17:38:00.101+02:00,3784.48569425,0.0974273681640625,-0.659271240234375,-0.8414764404296875
2024-06-20T17:38:00.102+02:00,3784.49575225,0.088226318359375,-0.6608734130859375,-0.82940673828125
2024-06-20T17:38:00.102+02:00,3784.50581025,0.054901123046875,-0.635040283203125,-0.825775146484375
2024-06-20T17:38:00.102+02:00,3784.51586725,0.0123291015625,-0.6002349853515625,-0.8227996826171875
2024-06-20T17:38:00.102+02:00,3784.52592525,-0.00494384765625,-0.59796142578125,-0.805450439453125
2024-06-20T17:38:00.102+02:00,3784.53598325,0.0007476806640625,-0.6278533935546875,-0.782958984375
2024-06-20T17:38:00.103+02:00,3784.54604125,0.02069091796875,-0.6474151611328125,-0.776611328125
2024-06-20T17:38:00.103+02:00,3784.55609825,0.0425262451171875,-0.6595306396484375,-0.7834930419921875
2024-06-20T17:38:00.103+02:00,3784.56615625,0.076812744140625,-0.674652099609375,-0.7939300537109375
2024-06-20T17:38:00.103+02:00,3784.57621425,0.1070404052734375,-0.6845855712890625,-0.8118743896484375
2024-06-20T17:38:00.104+02:00,3784.58627225,0.095977783203125,-0.674072265625,-0.8292083740234375
2024-06-20T17:38:00.104+02:00,3784.59632925,0.09271240234375,-0.6776123046875,-0.83642578125
2024-06-20T17:38:00.104+02:00,3784.60638725,0.1147918701171875,-0.68927001953125,-0.8391876220703125
2024-06-20T17:38:00.104+02:00,3784.61644525,0.1278076171875,-0.687164306640625,-0.83544921875
2024-06-20T17:38:00.104+02:00,3784.62650325,0.153076171875,-0.684051513671875,-0.8197479248046875
2024-06-20T17:38:00.105+02:00,3784.63656025,0.171600341796875,-0.6993255615234375,-0.8069000244140625
2024-06-20T17:38:00.105+02:00,3784.64661825,0.1720428466796875,-0.71331787109375,-0.8109130859375
2024-06-20T17:38:00.105+02:00,3784.65667625,0.1781005859375,-0.7556304931640625,-0.813262939453125
2024-06-20T17:38:00.105+02:00,3784.66673425,0.151763916015625,-0.7788848876953125,-0.8222198486328125
2024-06-20T17:38:00.106+02:00,3784.67679125,0.062225341796875,-0.8170166015625,-0.8514404296875
2024-06-20T17:38:00.106+02:00,3784.68684925,-0.0062713623046875,-0.8233489990234375,-0.8974151611328125
2024-06-20T17:38:00.106+02:00,3784.69690725,-0.0294952392578125,-0.7388763427734375,-0.872039794921875
2024-06-20T17:38:00.106+02:00,3784.70696525,-0.0296630859375,-0.6925506591796875,-0.9115447998046875
2024-06-20T17:38:00.106+02:00,3784.71702225,-0.0685577392578125,-0.5769195556640625,-0.897674560546875
2024-06-20T17:38:00.107+02:00,3784.72708025,-0.0653839111328125,-0.4972381591796875,-0.8814849853515625
2024-06-20T17:38:00.107+02:00,3784.73713825,-0.0731353759765625,-0.504486083984375,-0.8564605712890625
2024-06-20T17:38:00.107+02:00,3784.74719625,-0.088287353515625,-0.58245849609375,-0.801849365234375
2024-06-20T17:38:00.107+02:00,3784.75725325,-0.076263427734375,-0.6620941162109375,-0.78961181640625
2024-06-20T17:38:00.108+02:00,3784.76731125,-0.0253753662109375,-0.6508636474609375,-0.78912353515625
2024-06-20T17:38:00.108+02:00,3784.77736925,0.00360107421875,-0.5670166015625,-0.8135833740234375
2024-06-20T17:38:00.108+02:00,3784.78742725,-0.0232391357421875,-0.5191802978515625,-0.8480224609375
2024-06-20T17:38:00.108+02:00,3784.79748425,-0.0591583251953125,-0.549591064453125,-0.8372802734375
2024-06-20T17:38:00.108+02:00,3784.80754225,-0.05255126953125,-0.5631103515625,-0.8330078125
2024-06-20T17:38:00.109+02:00,3784.81760025,-0.0168609619140625,-0.5614013671875,-0.8032073974609375
2024-06-20T17:38:00.109+02:00,3784.82765825,0.0160369873046875,-0.565521240234375,-0.7863616943359375
2024-06-20T17:38:00.109+02:00,3784.83771525,0.0110931396484375,-0.5732574462890625,-0.77655029296875
2024-06-20T17:38:00.109+02:00,3784.84777325,-0.034637451171875,-0.567047119140625,-0.7724609375
2024-06-20T17:38:00.110+02:00,3784.85783125,-0.056365966796875,-0.5369720458984375,-0.8001556396484375
2024-06-20T17:38:00.110+02:00,3784.86788925,-0.0484771728515625,-0.5167236328125,-0.8193359375
2024-06-20T17:38:00.110+02:00,3784.87794625,-0.0348052978515625,-0.515106201171875,-0.8279571533203125
2024-06-20T17:38:00.111+02:00,3784.88800425,-0.0335540771484375,-0.5069732666015625,-0.82196044921875
2024-06-20T17:38:00.111+02:00,3784.89806225,-0.028717041015625,-0.5072784423828125,-0.799407958984375
2024-06-20T17:38:00.111+02:00,3784.90812025,-0.03277587890625,-0.50439453125,-0.77947998046875
2024-06-20T17:38:00.111+02:00,3784.91817725,-0.0492401123046875,-0.496246337890625,-0.7488555908203125
2024-06-20T17:38:00.112+02:00,3784.92823525,-0.0495452880859375,-0.5001373291015625,-0.717132568359375
2024-06-20T17:38:00.112+02:00,3784.93829325,-0.021148681640625,-0.472869873046875,-0.703338623046875
2024-06-20T17:38:00.112+02:00,3784.94835125,0.0027618408203125,-0.4312591552734375,-0.65753173828125
2024-06-20T17:38:00.112+02:00,3784.95840825,0.01898193359375,-0.4257049560546875,-0.66046142578125
2024-06-20T17:38:00.113+02:00,3784.96846625,0.0395660400390625,-0.45001220703125,-0.683380126953125
2024-06-20T17:38:00.113+02:00,3784.97852425,0.0685882568359375,-0.4620513916015625,-0.683837890625
2024-06-20T17:38:00.113+02:00,3784.98858225,0.086883544921875,-0.450775146484375,-0.6675262451171875
2024-06-20T17:38:00.113+02:00,3784.99863925,0.1089935302734375,-0.44708251953125,-0.6409454345703125
2024-06-20T17:38:00.114+02:00,3785.00869725,0.142913818359375,-0.4471588134765625,-0.6095428466796875
2024-06-20T17:38:00.114+02:00,3785.01875525,0.1551055908203125,-0.4361419677734375,-0.56689453125
2024-06-20T17:38:00.114+02:00,3785.02881325,0.0907745361328125,-0.3873748779296875,-0.5320281982421875
2024-06-20T17:38:00.114+02:00,3785.03887025,0.001434326171875,-0.32977294921875,-0.511810302734375
2024-06-20T17:38:00.115+02:00,3785.04892825,-0.0454559326171875,-0.287078857421875,-0.48211669921875
2024-06-20T17:38:00.115+02:00,3785.05898625,-0.0567474365234375,-0.260711669921875,-0.470947265625
2024-06-20T17:38:00.115+02:00,3785.06904425,-0.0520782470703125,-0.26239013671875,-0.4650421142578125
2024-06-20T17:38:00.115+02:00,3785.07910125,-0.015899658203125,-0.3108978271484375,-0.478668212890625
2024-06-20T17:38:00.115+02:00,3785.08915925,0.008026123046875,-0.371490478515625,-0.4971923828125
2024-06-20T17:38:00.116+02:00,3785.09921725,0.0556182861328125,-0.423583984375,-0.4931488037109375
2024-06-20T17:38:00.116+02:00,3785.10927525,0.046295166015625,-0.430572509765625,-0.534393310546875
2024-06-20T17:38:00.116+02:00,3785.11933225,-0.0037689208984375,-0.4128265380859375,-0.5815277099609375
2024-06-20T17:38:00.116+02:00,3785.12939025,-0.0213775634765625,-0.4245452880859375,-0.67510986328125
2024-06-20T17:38:00.116+02:00,3785.13944825,-0.0301361083984375,-0.45184326171875,-0.7691192626953125
2024-06-20T17:38:00.117+02:00,3785.14950625,-0.027374267578125,-0.444061279296875,-0.85162353515625
2024-06-20T17:38:00.117+02:00,3785.15956325,-0.00018310546875,-0.440521240234375,-0.93927001953125
2024-06-20T17:38:00.117+02:00,3785.16962125,0.039581298828125,-0.4641876220703125,-1.020675659179688
2024-06-20T17:38:00.117+02:00,3785.17967925,0.0555419921875,-0.47149658203125,-1.069854736328125
2024-06-20T17:38:00.117+02:00,3785.18973725,0.0211029052734375,-0.470184326171875,-1.12750244140625
2024-06-20T17:38:00.118+02:00,3785.19979425,-0.0323638916015625,-0.445526123046875,-1.161376953125
2024-06-20T17:38:00.118+02:00,3785.20985225,-0.0939483642578125,-0.415130615234375,-1.191986083984375
2024-06-20T17:38:00.118+02:00,3785.21991025,-0.1337738037109375,-0.4105987548828125,-1.20159912109375
2024-06-20T17:38:00.118+02:00,3785.22996825,-0.147552490234375,-0.4363861083984375,-1.217880249023438
2024-06-20T17:38:00.119+02:00,3785.24002525,-0.1494293212890625,-0.4698944091796875,-1.228668212890625
2024-06-20T17:38:00.119+02:00,3785.25008325,-0.156951904296875,-0.5049591064453125,-1.221023559570312
2024-06-20T17:38:00.119+02:00,3785.26014125,-0.1992034912109375,-0.501861572265625,-1.199371337890625
2024-06-20T17:38:00.119+02:00,3785.27019925,-0.2698974609375,-0.4600830078125,-1.20184326171875
2024-06-20T17:38:00.119+02:00,3785.28025625,-0.3073577880859375,-0.441619873046875,-1.20465087890625
2024-06-20T17:38:00.120+02:00,3785.29031425,-0.30859375,-0.4381561279296875,-1.17022705078125
2024-06-20T17:38:00.120+02:00,3785.30037225,-0.3126983642578125,-0.42462158203125,-1.138290405273438
2024-06-20T17:38:00.120+02:00,3785.31042925,-0.329864501953125,-0.410980224609375,-1.095901489257812
2024-06-20T17:38:00.120+02:00,3785.32048725,-0.326171875,-0.39459228515625,-1.05682373046875
2024-06-20T17:38:00.121+02:00,3785.33054525,-0.310577392578125,-0.3777618408203125,-1.020187377929688
2024-06-20T17:38:00.121+02:00,3785.34060325,-0.315826416015625,-0.3756866455078125,-0.9959869384765625
2024-06-20T17:38:00.121+02:00,3785.35066125,-0.318328857421875,-0.3776702880859375,-0.99755859375
2024-06-20T17:38:00.121+02:00,3785.36071825,-0.3050994873046875,-0.363983154296875,-1.037124633789062
2024-06-20T17:38:00.121+02:00,3785.37077625,-0.2745208740234375,-0.3505859375,-0.9634246826171875
2024-06-20T17:38:00.122+02:00,3785.475590375,0.120361328125,0.00738525390625,-0.9449005126953125
2024-06-20T17:38:00.122+02:00,3785.485648375,0.1260223388671875,0.02587890625,-0.950927734375
2024-06-20T17:38:00.122+02:00,3785.495705375,0.1346282958984375,0.036712646484375,-0.9551849365234375
2024-06-20T17:38:00.122+02:00,3785.505763375,0.1445465087890625,0.0428314208984375,-0.965087890625
2024-06-20T17:38:00.123+02:00,3785.515821375,0.1483154296875,0.0478363037109375,-0.9771270751953125
2024-06-20T17:38:00.123+02:00,3785.525879375,0.1477508544921875,0.043212890625,-0.980865478515625
2024-06-20T17:38:00.123+02:00,3785.535936375,0.138153076171875,0.012359619140625,-0.9884490966796875
2024-06-20T17:38:00.123+02:00,3785.545994375,0.1365203857421875,-0.0264434814453125,-0.993865966796875
2024-06-20T17:38:00.123+02:00,3785.556052375,0.1463470458984375,-0.042816162109375,-0.996917724609375
2024-06-20T17:38:00.124+02:00,3785.566110375,0.1548614501953125,-0.045989990234375,-0.9799041748046875
2024-06-20T17:38:00.124+02:00,3785.576167375,0.1468505859375,-0.0564117431640625,-0.9750213623046875
2024-06-20T17:38:00.124+02:00,3785.586225375,0.130096435546875,-0.0825958251953125,-0.9584808349609375
2024-06-20T17:38:00.124+02:00,3785.596283375,0.123199462890625,-0.097747802734375,-0.9390869140625
2024-06-20T17:38:00.124+02:00,3785.606340375,0.1301116943359375,-0.1053009033203125,-0.9130096435546875
2024-06-20T17:38:00.125+02:00,3785.616398375,0.1407623291015625,-0.10394287109375,-0.914306640625
2024-06-20T17:38:00.125+02:00,3785.626456375,0.14422607421875,-0.0956268310546875,-0.929168701171875
2024-06-20T17:38:00.125+02:00,3785.636514375,0.13690185546875,-0.0782012939453125,-0.9564208984375
2024-06-20T17:38:00.125+02:00,3785.646571375,0.120025634765625,-0.050933837890625,-0.9773406982421875
2024-06-20T17:38:00.126+02:00,3785.656629375,0.1042022705078125,-0.034149169921875,-0.9878692626953125
2024-06-20T17:38:00.126+02:00,3785.666687375,0.097625732421875,-0.0468597412109375,-0.9954833984375
2024-06-20T17:38:00.126+02:00,3785.676745375,0.10943603515625,-0.061737060546875,-0.9805145263671875
2024-06-20T17:38:00.126+02:00,3785.686802375,0.1246185302734375,-0.07391357421875,-0.9653167724609375
2024-06-20T17:38:00.127+02:00,3785.696860375,0.130645751953125,-0.087677001953125,-0.9588470458984375
2024-06-20T17:38:00.127+02:00,3785.706918375,0.1242523193359375,-0.086639404296875,-0.94427490234375
2024-06-20T17:38:00.127+02:00,3785.716975375,0.114471435546875,-0.0735321044921875,-0.938568115234375
2024-06-20T17:38:00.128+02:00,3785.727033375,0.1114349365234375,-0.06231689453125,-0.9403228759765625
2024-06-20T17:38:00.128+02:00,3785.737091375,0.116729736328125,-0.05047607421875,-0.944000244140625
2024-06-20T17:38:00.128+02:00,3785.747149375,0.115692138671875,-0.04522705078125,-0.9452667236328125
2024-06-20T17:38:00.128+02:00,3785.757206375,0.109222412109375,-0.050506591796875,-0.9356231689453125
2024-06-20T17:38:00.129+02:00,3785.767264375,0.1072845458984375,-0.058197021484375,-0.9276275634765625
2024-06-20T17:38:00.129+02:00,3785.777322375,0.1199951171875,-0.054901123046875,-0.897918701171875
2024-06-20T17:38:00.129+02:00,3785.787380375,0.1401824951171875,-0.0426483154296875,-0.8948211669921875
2024-06-20T17:38:00.129+02:00,3785.797437375,0.1495819091796875,-0.034759521484375,-0.90545654296875
2024-06-20T17:38:00.130+02:00,3785.807495375,0.152740478515625,-0.0205078125,-0.9132537841796875
2024-06-20T17:38:00.130+02:00,3785.817553375,0.1540069580078125,-0.0029449462890625,-0.923004150390625
2024-06-20T17:38:00.130+02:00,3785.827611375,0.156524658203125,0.0014495849609375,-0.939910888671875
2024-06-20T17:38:00.130+02:00,3785.837668375,0.1669464111328125,0.0008544921875,-0.9539642333984375
2024-06-20T17:38:00.130+02:00,3785.847726375,0.1808013916015625,-0.00225830078125,-0.97174072265625
2024-06-20T17:38:00.131+02:00,3785.857784375,0.1890716552734375,-0.011810302734375,-0.9873504638671875
2024-06-20T17:38:00.131+02:00,3785.867842375,0.188079833984375,-0.0218048095703125,-0.9849700927734375
2024-06-20T17:38:00.131+02:00,3785.877899375,0.18011474609375,-0.029510498046875,-0.9699859619140625
2024-06-20T17:38:00.131+02:00,3785.887957375,0.1722259521484375,-0.0205230712890625,-0.96099853515625
2024-06-20T17:38:00.132+02:00,3785.898015375,0.16314697265625,-0.0013580322265625,-0.9481964111328125
2024-06-20T17:38:00.132+02:00,3785.908072375,0.147430419921875,0.0186614990234375,-0.9442291259765625
2024-06-20T17:38:00.132+02:00,3785.918130375,0.1265869140625,0.0473175048828125,-0.933013916015625
2024-06-20T17:38:00.132+02:00,3785.928188375,0.0984954833984375,0.0805511474609375,-0.9195098876953125
2024-06-20T17:38:00.132+02:00,3785.938246375,0.0656280517578125,0.0986175537109375,-0.904693603515625
2024-06-20T17:38:00.133+02:00,3785.948303375,0.026611328125,0.1058807373046875,-0.8849334716796875
2024-06-20T17:38:00.133+02:00,3785.958361375,-0.0121002197265625,0.101348876953125,-0.8501434326171875
2024-06-20T17:38:00.133+02:00,3785.968419375,-0.04937744140625,0.08770751953125,-0.82855224609375
2024-06-20T17:38:00.133+02:00,3785.978477375,-0.0804901123046875,0.0685882568359375,-0.7962646484375
2024-06-20T17:38:00.133+02:00,3785.988534375,-0.097930908203125,0.0478057861328125,-0.768951416015625
2024-06-20T17:38:00.134+02:00,3785.998592375,-0.103912353515625,0.0420379638671875,-0.748321533203125
2024-06-20T17:38:00.134+02:00,3786.008650375,-0.0958099365234375,0.0481109619140625,-0.729644775390625
2024-06-20T17:38:00.134+02:00,3786.018708375,-0.0807952880859375,0.0582733154296875,-0.724853515625
2024-06-20T17:38:00.134+02:00,3786.028765375,-0.0670623779296875,0.085662841796875,-0.7444305419921875
2024-06-20T17:38:00.135+02:00,3786.038823375,-0.053558349609375,0.121551513671875,-0.7703704833984375
2024-06-20T17:38:00.135+02:00,3786.048881375,-0.05010986328125,0.155548095703125,-0.7882080078125
2024-06-20T17:38:00.135+02:00,3786.058938375,-0.055816650390625,0.1792755126953125,-0.790283203125
2024-06-20T17:38:00.135+02:00,3786.068996375,-0.0725860595703125,0.1871795654296875,-0.798492431640625
2024-06-20T17:38:00.136+02:00,3786.079054375,-0.0858154296875,0.1868743896484375,-0.7826385498046875
2024-06-20T17:38:00.136+02:00,3786.089112375,-0.1101531982421875,0.1858367919921875,-0.7960662841796875
2024-06-20T17:38:00.136+02:00,3786.099169375,-0.113128662109375,0.1993865966796875,-0.7469635009765625
2024-06-20T17:38:00.136+02:00,3786.109227375,-0.0642852783203125,0.31610107421875,-0.740997314453125
2024-06-20T17:38:00.136+02:00,3786.119285375,-0.047119140625,0.4881744384765625,-0.8459014892578125
2024-06-20T17:38:00.137+02:00,3786.129343375,-0.0540771484375,0.6374664306640625,-0.9011993408203125
2024-06-20T17:38:00.137+02:00,3786.139400375,-0.0810699462890625,0.7311859130859375,-0.9503021240234375
2024-06-20T17:38:00.137+02:00,3786.149458375,-0.0860443115234375,0.7569122314453125,-0.9587554931640625
2024-06-20T17:38:00.137+02:00,3786.159516375,-0.0748748779296875,0.7410125732421875,-0.92718505859375
2024-06-20T17:38:00.137+02:00,3786.169574375,-0.0549468994140625,0.692901611328125,-0.9028472900390625
2024-06-20T17:38:00.138+02:00,3786.179631375,-0.038604736328125,0.643341064453125,-0.898590087890625
2024-06-20T17:38:00.138+02:00,3786.189689375,-0.021820068359375,0.6015472412109375,-0.9339599609375
2024-06-20T17:38:00.138+02:00,3786.199747375,0.002227783203125,0.58984375,-0.965850830078125
2024-06-20T17:38:00.138+02:00,3786.209804375,-0.0016632080078125,0.592926025390625,-0.968658447265625
2024-06-20T17:38:00.139+02:00,3786.219862375,-0.027130126953125,0.5737457275390625,-1.000640869140625
2024-06-20T17:38:00.139+02:00,3786.229920375,-0.03851318359375,0.5442657470703125,-0.9771270751953125
2024-06-20T17:38:00.139+02:00,3786.239978375,-0.0450439453125,0.54010009765625,-0.975128173828125
2024-06-20T17:38:00.139+02:00,3786.250035375,-0.0455474853515625,0.5417327880859375,-0.9271697998046875
2024-06-20T17:38:00.139+02:00,3786.260093375,-0.0593719482421875,0.545196533203125,-0.8913116455078125
2024-06-20T17:38:00.140+02:00,3786.270151375,-0.0808258056640625,0.5535125732421875,-0.8886566162109375
2024-06-20T17:38:00.140+02:00,3786.280209375,-0.0952911376953125,0.565765380859375,-0.8872222900390625
2024-06-20T17:38:00.140+02:00,3786.290266375,-0.1344146728515625,0.566802978515625,-0.9221343994140625
2024-06-20T17:38:00.140+02:00,3786.300324375,-0.181427001953125,0.57293701171875,-0.9414825439453125
2024-06-20T17:38:00.141+02:00,3786.310382375,-0.2175140380859375,0.596588134765625,-0.94769287109375
2024-06-20T17:38:00.141+02:00,3786.320440375,-0.25213623046875,0.6093292236328125,-0.947357177734375
2024-06-20T17:38:00.141+02:00,3786.330497375,-0.270751953125,0.597564697265625,-0.9454498291015625
2024-06-20T17:38:00.141+02:00,3786.340555375,-0.2733001708984375,0.574432373046875,-0.912078857421875
2024-06-20T17:38:00.142+02:00,3786.350613375,-0.2977294921875,0.5487823486328125,-0.8871307373046875
2024-06-20T17:38:00.142+02:00,3786.360670375,-0.3264923095703125,0.516937255859375,-0.890228271484375
2024-06-20T17:38:00.142+02:00,3786.370728375,-0.3549346923828125,0.4824676513671875,-0.88507080078125
2024-06-20T17:38:00.142+02:00,3786.380786375,-0.382843017578125,0.45343017578125,-0.8686370849609375
2024-06-20T17:38:00.142+02:00,3786.390844375,-0.4320526123046875,0.4627227783203125,-0.8407135009765625
2024-06-20T17:38:00.143+02:00,3786.400901375,-0.4803009033203125,0.4640045166015625,-0.8173980712890625
2024-06-20T17:38:00.143+02:00,3786.410959375,-0.512115478515625,0.4248809814453125,-0.790618896484375
2024-06-20T17:38:00.143+02:00,3786.421017375,-0.5423736572265625,0.3926849365234375,-0.750091552734375
2024-06-20T17:38:00.143+02:00,3786.431075375,-0.5425872802734375,0.3831024169921875,-0.71697998046875
2024-06-20T17:38:00.144+02:00,3786.441132375,-0.510345458984375,0.3754730224609375,-0.6873626708984375
2024-06-20T17:38:00.144+02:00,3786.451190875,-0.4797210693359375,0.36431884765625,-0.7089996337890625
2024-06-20T17:38:00.145+02:00,3786.461248875,-0.4632110595703125,0.383148193359375,-0.71661376953125
2024-06-20T17:38:00.145+02:00,3786.471306875,-0.458099365234375,0.3994598388671875,-0.74859619140625
2024-06-20T17:38:00.145+02:00,3786.481363875,-0.4588165283203125,0.405426025390625,-0.775634765625
2024-06-20T17:38:00.145+02:00,3786.491421875,-0.486419677734375,0.3968963623046875,-0.7950897216796875
2024-06-20T17:38:00.146+02:00,3786.575945791667,-0.0334625244140625,0.13018798828125,-0.8301849365234375
2024-06-20T17:38:00.146+02:00,3786.586003791667,0.06134033203125,0.0850830078125,-1.206222534179688
2024-06-20T17:38:00.146+02:00,3786.596061791667,0.2373046875,0.15240478515625,-0.887542724609375
2024-06-20T17:38:00.146+02:00,3786.606118791667,0.001220703125,0.1119232177734375,-0.90545654296875
2024-06-20T17:38:00.146+02:00,3786.616176791667,0.010467529296875,0.0758056640625,-1.08697509765625
2024-06-20T17:38:00.147+02:00,3786.626234791667,0.050048828125,0.088226318359375,-0.909454345703125
2024-06-20T17:38:00.147+02:00,3786.636291791667,-0.0423583984375,0.0634765625,-0.9687957763671875
2024-06-20T17:38:00.147+02:00,3786.646349791667,-0.028778076171875,0.0909271240234375,-0.9933624267578125
2024-06-20T17:38:00.147+02:00,3786.656407791667,0.0402679443359375,0.0883331298828125,-0.993621826171875
2024-06-20T17:38:00.148+02:00,3786.666464791667,0.0609283447265625,0.08819580078125,-0.9914398193359375
2024-06-20T17:38:00.148+02:00,3786.676522791667,0.0046844482421875,0.1318511962890625,-0.95428466796875
2024-06-20T17:38:00.148+02:00,3786.686580791667,-0.025360107421875,0.1351470947265625,-1.0347900390625
2024-06-20T17:38:00.149+02:00,3786.696638791667,3.0517578125e-05,0.1284332275390625,-0.97003173828125
2024-06-20T17:38:00.149+02:00,3786.706695791667,0.0143585205078125,0.1342620849609375,-0.941619873046875
2024-06-20T17:38:00.149+02:00,3786.716753791667,0.0169677734375,0.13525390625,-0.9635009765625
2024-06-20T17:38:00.149+02:00,3786.726811791667,0.0123748779296875,0.12188720703125,-0.9315185546875
2024-06-20T17:38:00.149+02:00,3786.736868791667,-0.0055389404296875,0.116607666015625,-0.97296142578125
2024-06-20T17:38:00.150+02:00,3786.746926791667,-0.0032501220703125,0.1422576904296875,-0.976776123046875
2024-06-20T17:38:00.150+02:00,3786.756984791667,-0.008880615234375,0.1953582763671875,-1.029006958007812
2024-06-20T17:38:00.150+02:00,3786.767042791667,-0.0259552001953125,0.19561767578125,-1.060043334960938
2024-06-20T17:38:00.150+02:00,3786.777099791667,0.01324462890625,0.1884002685546875,-1.007461547851562
2024-06-20T17:38:00.151+02:00,3786.787157791667,0.053924560546875,0.1881103515625,-0.9726409912109375
2024-06-20T17:38:00.151+02:00,3786.797215791667,0.0342254638671875,0.234893798828125,-0.985931396484375
2024-06-20T17:38:00.151+02:00,3786.807272791667,0.0124664306640625,0.2751617431640625,-1.029693603515625
2024-06-20T17:38:00.151+02:00,3786.817330791667,-0.0018463134765625,0.2984466552734375,-1.071243286132812
2024-06-20T17:38:00.152+02:00,3786.827388791667,-0.0829315185546875,0.4694976806640625,-1.096038818359375
2024-06-20T17:38:00.154+02:00,3786.837446791667,0.130767822265625,0.4217529296875,-1.209716796875
2024-06-20T17:38:00.164+02:00,3786.847503791667,0.2080078125,0.09912109375,-0.9532623291015625
2024-06-20T17:38:00.174+02:00,3786.857561791667,0.06243896484375,0.0454559326171875,-0.9106903076171875
2024-06-20T17:38:00.184+02:00,3786.867619791667,-0.039276123046875,0.0540618896484375,-0.92242431640625
2024-06-20T17:38:00.195+02:00,3786.877676791667,0.0176849365234375,0.15582275390625,-1.043716430664062
2024-06-20T17:38:00.204+02:00,3786.887734791667,0.06756591796875,0.2367401123046875,-1.111984252929688
2024-06-20T17:38:00.214+02:00,3786.897792791667,-0.0498199462890625,0.121673583984375,-1.062362670898438
2024-06-20T17:38:00.224+02:00,3786.907849791667,-0.0367584228515625,0.0628509521484375,-1.013580322265625
2024-06-20T17:38:00.234+02:00,3786.917907791667,-0.0013427734375,0.043121337890625,-0.968231201171875
2024-06-20T17:38:00.245+02:00,3786.927965791667,-0.0006561279296875,0.102264404296875,-0.9109344482421875
2024-06-20T17:38:00.255+02:00,3786.938023791667,-0.01068115234375,0.1744384765625,-0.83935546875
2024-06-20T17:38:00.265+02:00,3786.948080791667,-0.0108642578125,0.1241607666015625,-0.819305419921875
2024-06-20T17:38:00.275+02:00,3786.958138791667,0.007781982421875,0.0904541015625,-0.947845458984375
2024-06-20T17:38:00.285+02:00,3786.968196791667,0.0659637451171875,0.113433837890625,-0.970001220703125
2024-06-20T17:38:00.295+02:00,3786.978253791667,0.0977935791015625,0.1387939453125,-0.974609375
2024-06-20T17:38:00.305+02:00,3786.988311791667,0.0800323486328125,0.1231536865234375,-0.985595703125
2024-06-20T17:38:00.315+02:00,3786.998369791667,0.0576629638671875,0.06866455078125,-0.9901885986328125
2024-06-20T17:38:00.325+02:00,3787.008427791667,0.0583953857421875,0.0496673583984375,-0.9723663330078125
2024-06-20T17:38:00.335+02:00,3787.018484791667,0.0688323974609375,0.0597076416015625,-0.97259521484375
2024-06-20T17:38:00.345+02:00,3787.028542791667,0.087249755859375,0.06341552734375,-0.97210693359375
2024-06-20T17:38:00.355+02:00,3787.038600791667,0.093353271484375,0.0498504638671875,-0.940704345703125
2024-06-20T17:38:00.365+02:00,3787.048657791667,0.0842742919921875,0.001861572265625,-0.931671142578125
2024-06-20T17:38:00.375+02:00,3787.058715791667,0.0704345703125,-0.0115814208984375,-0.947601318359375
2024-06-20T17:38:00.385+02:00,3787.068773791667,0.0754852294921875,0.025970458984375,-0.9818572998046875
2024-06-20T17:38:00.395+02:00,3787.078831791667,0.0857696533203125,0.049560546875,-1.011978149414062
2024-06-20T17:38:00.405+02:00,3787.088888791667,0.0973663330078125,0.0602569580078125,-1.00152587890625
2024-06-20T17:38:00.416+02:00,3787.098946791667,0.1147003173828125,0.046142578125,-0.99285888671875
2024-06-20T17:38:00.427+02:00,3787.109004791667,0.125,0.013092041015625,-0.9647369384765625
2024-06-20T17:38:00.436+02:00,3787.119061791667,0.1369781494140625,0.0320587158203125,-0.9519195556640625
2024-06-20T17:38:00.452+02:00,3787.129119791667,0.154876708984375,0.05157470703125,-0.9630126953125
2024-06-20T17:38:00.456+02:00,3787.139177791667,0.16033935546875,0.0255584716796875,-0.9855194091796875
2024-06-20T17:38:00.466+02:00,3787.149234791667,0.1455535888671875,0.013916015625,-0.980743408203125
2024-06-20T17:38:00.476+02:00,3787.159292791667,0.1282958984375,0.023834228515625,-0.976409912109375
2024-06-20T17:38:00.486+02:00,3787.169350791667,0.1210784912109375,0.011566162109375,-0.974945068359375
2024-06-20T17:38:00.496+02:00,3787.179408791667,0.100555419921875,-0.031463623046875,-0.990997314453125
2024-06-20T17:38:00.506+02:00,3787.189465791667,0.063720703125,-0.0370941162109375,-1.005416870117188
2024-06-20T17:38:00.516+02:00,3787.199523791667,0.0279388427734375,0.0096588134765625,-1.040664672851562
2024-06-20T17:38:00.536+02:00,3787.209581791667,0.00811767578125,0.0726470947265625,-1.04510498046875
2024-06-20T17:38:00.538+02:00,3787.219638791667,0.00164794921875,0.1127777099609375,-1.063995361328125
2024-06-20T17:38:00.547+02:00,3787.229696791667,0.0065460205078125,0.105804443359375,-1.067535400390625
2024-06-20T17:38:00.556+02:00,3787.239754791667,0.02838134765625,0.0741119384765625,-1.021072387695312
2024-06-20T17:38:00.566+02:00,3787.249812791667,0.0672454833984375,0.03289794921875,-0.9861907958984375
2024-06-20T17:38:00.577+02:00,3787.259869791667,0.09783935546875,0.00506591796875,-0.9669647216796875
2024-06-20T17:38:00.587+02:00,3787.269927791667,0.1157379150390625,-0.009979248046875,-0.95281982421875
2024-06-20T17:38:00.597+02:00,3787.279985791667,0.1061859130859375,-0.0021514892578125,-0.9806365966796875
2024-06-20T17:38:00.607+02:00,3787.290042791667,0.073089599609375,0.032135009765625,-1.003402709960938
2024-06-20T17:38:00.617+02:00,3787.300100791667,0.0426177978515625,0.0559539794921875,-1.003616333007812
2024-06-20T17:38:00.627+02:00,3787.310158791667,0.0296478271484375,0.060577392578125,-1.00048828125
2024-06-20T17:38:00.637+02:00,3787.320216791667,0.0263214111328125,0.0442047119140625,-0.9800262451171875
2024-06-20T17:38:00.647+02:00,3787.330273791667,0.02960205078125,0.0265045166015625,-0.94952392578125
2024-06-20T17:38:00.657+02:00,3787.340331791667,0.0331573486328125,0.0201568603515625,-0.9037322998046875
2024-06-20T17:38:00.667+02:00,3787.350389791667,0.042877197265625,0.01751708984375,-0.8851165771484375
2024-06-20T17:38:00.677+02:00,3787.360446791667,0.042877197265625,0.0375213623046875,-0.939117431640625
2024-06-20T17:38:00.687+02:00,3787.370504791667,0.0194091796875,0.0856170654296875,-0.9684906005859375
2024-06-20T17:38:00.697+02:00,3787.380562791667,0.006683349609375,0.1256561279296875,-0.993743896484375
2024-06-20T17:38:00.707+02:00,3787.390619791667,0.01055908203125,0.1266632080078125,-1.006134033203125
2024-06-20T17:38:00.717+02:00,3787.400677791667,0.0260009765625,0.095428466796875,-1.0037841796875
2024-06-20T17:38:00.727+02:00,3787.410735791667,0.0485382080078125,0.066375732421875,-0.984619140625
2024-06-20T17:38:00.737+02:00,3787.420793791667,0.0678558349609375,0.021270751953125,-0.9627685546875
2024-06-20T17:38:00.747+02:00,3787.430850791667,0.0825653076171875,-0.0268096923828125,-0.9491119384765625
2024-06-20T17:38:00.757+02:00,3787.440908791667,0.091949462890625,-0.0277252197265625,-0.9477691650390625
2024-06-20T17:38:00.767+02:00,3787.450965375,0.0975341796875,0.01708984375,-0.9617767333984375
2024-06-20T17:38:00.778+02:00,3787.461022375,0.1114349365234375,0.0550689697265625,-0.95843505859375
2024-06-20T17:38:00.788+02:00,3787.471080375,0.11669921875,0.0576629638671875,-0.9887237548828125
2024-06-20T17:38:00.798+02:00,3787.481138375,0.089996337890625,0.0556640625,-1.000350952148438
2024-06-20T17:38:00.808+02:00,3787.491196375,0.0420074462890625,0.0677642822265625,-1.036651611328125
2024-06-20T17:38:00.818+02:00,3787.501253375,-0.013397216796875,0.0806732177734375,-1.064102172851562
2024-06-20T17:38:00.828+02:00,3787.511311375,-0.0565643310546875,0.1147308349609375,-1.074462890625
2024-06-20T17:38:00.838+02:00,3787.521369375,-0.0722808837890625,0.16064453125,-1.077117919921875
2024-06-20T17:38:00.848+02:00,3787.531426375,-0.069549560546875,0.17034912109375,-1.064926147460938
2024-06-20T17:38:00.858+02:00,3787.541484375,-0.05792236328125,0.1673126220703125,-1.07177734375
2024-06-20T17:38:00.868+02:00,3787.551542375,-0.0628662109375,0.1699676513671875,-1.11865234375
2024-06-20T17:38:00.878+02:00,3787.561599375,-0.077972412109375,0.177032470703125,-1.139480590820312
2024-06-20T17:38:00.888+02:00,3787.571657375,-0.0708770751953125,0.1782379150390625,-1.141815185546875
2024-06-20T17:38:00.898+02:00,3787.581715375,-0.0369873046875,0.139312744140625,-1.145721435546875
2024-06-20T17:38:00.908+02:00,3787.591773375,0.0013580322265625,0.0870208740234375,-1.152984619140625
2024-06-20T17:38:00.918+02:00,3787.601830375,0.02215576171875,0.0679473876953125,-1.121414184570312
2024-06-20T17:38:00.929+02:00,3787.611888375,0.017364501953125,0.0843048095703125,-1.133758544921875
2024-06-20T17:38:00.938+02:00,3787.621946375,-0.0207977294921875,0.0937957763671875,-1.141281127929688
2024-06-20T17:38:00.949+02:00,3787.632003375,-0.0447235107421875,0.1009368896484375,-1.181167602539062
2024-06-20T17:38:00.958+02:00,3787.642061375,-0.04632568359375,0.125152587890625,-1.184295654296875
2024-06-20T17:38:00.969+02:00,3787.652119375,-0.0404205322265625,0.1170501708984375,-1.200027465820312
2024-06-20T17:38:00.979+02:00,3787.662177375,-0.0244140625,0.1082916259765625,-1.190399169921875
2024-06-20T17:38:00.989+02:00,3787.672234375,0.007598876953125,0.097869873046875,-1.185760498046875
2024-06-20T17:38:00.999+02:00,3787.682292375,0.0377044677734375,0.080474853515625,-1.196273803710938
2024-06-20T17:38:01.009+02:00,3787.692350375,0.0611419677734375,0.0784149169921875,-1.144790649414062
2024-06-20T17:38:01.019+02:00,3787.702407375,0.0745849609375,0.1027679443359375,-1.209487915039062
2024-06-20T17:38:01.029+02:00,3787.712465375,0.038604736328125,0.1482086181640625,-1.2796630859375
2024-06-20T17:38:01.039+02:00,3787.722523375,0.00164794921875,0.1962432861328125,-1.307174682617188
2024-06-20T17:38:01.049+02:00,3787.732581375,9.1552734375e-05,0.20050048828125,-1.311767578125
2024-06-20T17:38:01.059+02:00,3787.742638375,0.027374267578125,0.1630401611328125,-1.304794311523438
2024-06-20T17:38:01.069+02:00,3787.752696375,0.05084228515625,0.1314697265625,-1.326263427734375
2024-06-20T17:38:01.079+02:00,3787.762754375,0.0516204833984375,0.1342926025390625,-1.304443359375
2024-06-20T17:38:01.089+02:00,3787.772811375,0.0257110595703125,0.1134033203125,-1.245590209960938
2024-06-20T17:38:01.099+02:00,3787.782869375,0.0148468017578125,0.064056396484375,-1.194000244140625
2024-06-20T17:38:01.110+02:00,3787.792927375,0.0216522216796875,0.021209716796875,-1.173095703125
2024-06-20T17:38:01.119+02:00,3787.802984375,0.028778076171875,0.005828857421875,-1.181610107421875
2024-06-20T17:38:01.130+02:00,3787.813042375,0.031951904296875,0.027435302734375,-1.188461303710938
2024-06-20T17:38:01.140+02:00,3787.823100375,0.0473175048828125,0.086517333984375,-1.2188720703125
2024-06-20T17:38:01.150+02:00,3787.833158375,0.0493011474609375,0.0841064453125,-1.252487182617188
2024-06-20T17:38:01.160+02:00,3787.843215375,0.03643798828125,0.041046142578125,-1.224868774414062
2024-06-20T17:38:01.170+02:00,3787.853273375,0.0357513427734375,0.00494384765625,-1.187301635742188
2024-06-20T17:38:01.180+02:00,3787.863331375,0.0487823486328125,-0.030029296875,-1.161849975585938
2024-06-20T17:38:01.190+02:00,3787.873388375,0.065460205078125,-0.0696868896484375,-1.141220092773438
2024-06-20T17:38:01.200+02:00,3787.883446375,0.071136474609375,-0.0986785888671875,-1.1273193359375
2024-06-20T17:38:01.210+02:00,3787.893504375,0.0619049072265625,-0.0897979736328125,-1.137100219726562
2024-06-20T17:38:01.220+02:00,3787.903562375,0.0456085205078125,-0.0447540283203125,-1.141342163085938
2024-06-20T17:38:01.230+02:00,3787.913619375,0.04296875,-0.0242767333984375,-1.141098022460938
2024-06-20T17:38:01.240+02:00,3787.923677375,0.0626983642578125,-0.0361480712890625,-1.126724243164062
2024-06-20T17:38:01.250+02:00,3787.933735375,0.102752685546875,-0.0497589111328125,-1.123046875
2024-06-20T17:38:01.260+02:00,3787.943792375,0.1233673095703125,-0.0526123046875,-1.110855102539062
2024-06-20T17:38:01.270+02:00,3787.953850375,0.1208648681640625,-0.0384521484375,-1.099197387695312
2024-06-20T17:38:01.280+02:00,3787.963908375,0.103729248046875,-0.058380126953125,-1.057586669921875
2024-06-20T17:38:01.290+02:00,3787.973966375,0.0990447998046875,-0.097869873046875,-1.012252807617188
2024-06-20T17:38:01.300+02:00,3787.984023375,0.1048583984375,-0.1109619140625,-0.998260498046875
2024-06-20T17:38:01.311+02:00,3787.994081375,0.09320068359375,-0.0992889404296875,-1.020416259765625
2024-06-20T17:38:01.321+02:00,3788.004139375,0.0679168701171875,-0.0778045654296875,-1.030319213867188
2024-06-20T17:38:01.331+02:00,3788.014196375,0.0544281005859375,-0.0616607666015625,-1.02764892578125
2024-06-20T17:38:01.341+02:00,3788.024254375,0.06494140625,-0.0719146728515625,-1.020828247070312
2024-06-20T17:38:01.351+02:00,3788.034312375,0.0889739990234375,-0.088623046875,-0.9836273193359375
2024-06-20T17:38:01.361+02:00,3788.044369375,0.1320037841796875,-0.0958099365234375,-0.9589080810546875
2024-06-20T17:38:01.371+02:00,3788.054427375,0.1564788818359375,-0.118927001953125,-0.9233551025390625
2024-06-20T17:38:01.381+02:00,3788.064485375,0.1497344970703125,-0.1502227783203125,-0.9120330810546875
2024-06-20T17:38:01.391+02:00,3788.074543375,0.1162109375,-0.1557464599609375,-0.9033203125
2024-06-20T17:38:01.401+02:00,3788.084600375,0.0765533447265625,-0.1493682861328125,-0.9009246826171875
2024-06-20T17:38:01.411+02:00,3788.094658375,0.0359344482421875,-0.1400604248046875,-0.909881591796875
2024-06-20T17:38:01.421+02:00,3788.104716375,0.01226806640625,-0.1300048828125,-0.9320831298828125
2024-06-20T17:38:01.431+02:00,3788.114773375,0.0059814453125,-0.1314239501953125,-0.920440673828125
2024-06-20T17:38:01.443+02:00,3788.124831375,0.0254058837890625,-0.16259765625,-0.8962860107421875
2024-06-20T17:38:01.452+02:00,3788.134889375,0.062164306640625,-0.2184600830078125,-0.87591552734375
2024-06-20T17:38:01.461+02:00,3788.144947375,0.097076416015625,-0.2552642822265625,-0.869171142578125
2024-06-20T17:38:01.472+02:00,3788.155004375,0.11456298828125,-0.2711181640625,-0.8498687744140625
2024-06-20T17:38:01.481+02:00,3788.165062375,0.12127685546875,-0.279083251953125,-0.8257598876953125
2024-06-20T17:38:01.492+02:00,3788.175120375,0.112823486328125,-0.2719268798828125,-0.8364105224609375
2024-06-20T17:38:01.502+02:00,3788.185177375,0.0683135986328125,-0.2612762451171875,-0.842742919921875
2024-06-20T17:38:01.512+02:00,3788.195235375,0.0236053466796875,-0.2260284423828125,-0.84375
2024-06-20T17:38:01.522+02:00,3788.205293375,0.0030059814453125,-0.18414306640625,-0.856170654296875
2024-06-20T17:38:01.532+02:00,3788.215351375,-0.0032806396484375,-0.1570892333984375,-0.854583740234375
2024-06-20T17:38:01.542+02:00,3788.225408375,-7.62939453125e-05,-0.1749114990234375,-0.852783203125
2024-06-20T17:38:01.552+02:00,3788.235466375,0.009429931640625,-0.2289581298828125,-0.831695556640625
2024-06-20T17:38:01.562+02:00,3788.245524375,0.02899169921875,-0.27081298828125,-0.79864501953125
2024-06-20T17:38:01.572+02:00,3788.255581375,0.046142578125,-0.3159637451171875,-0.7616729736328125
2024-06-20T17:38:01.582+02:00,3788.265639375,0.059539794921875,-0.3440704345703125,-0.73724365234375
2024-06-20T17:38:01.592+02:00,3788.275697375,0.0639190673828125,-0.3453369140625,-0.7099609375
2024-06-20T17:38:01.602+02:00,3788.285754375,0.0609893798828125,-0.3418731689453125,-0.6859588623046875
2024-06-20T17:38:01.612+02:00,3788.295812375,0.055084228515625,-0.3319854736328125,-0.7210540771484375
2024-06-20T17:38:01.623+02:00,3788.305870375,0.0471954345703125,-0.3274688720703125,-0.737823486328125
2024-06-20T17:38:01.633+02:00,3788.315928375,0.05169677734375,-0.339508056640625,-0.736663818359375
2024-06-20T17:38:01.643+02:00,3788.325985375,0.066436767578125,-0.3792877197265625,-0.7354888916015625
2024-06-20T17:38:01.653+02:00,3788.336043375,0.07183837890625,-0.45281982421875,-0.7229766845703125
2024-06-20T17:38:01.663+02:00,3788.346101375,0.073944091796875,-0.5051116943359375,-0.714202880859375
2024-06-20T17:38:01.673+02:00,3788.356158375,0.08612060546875,-0.52471923828125,-0.7147979736328125
2024-06-20T17:38:01.683+02:00,3788.366216375,0.113525390625,-0.5219268798828125,-0.6948089599609375
2024-06-20T17:38:01.693+02:00,3788.376274375,0.152740478515625,-0.51531982421875,-0.67559814453125
2024-06-20T17:38:01.703+02:00,3788.386332375,0.178253173828125,-0.510589599609375,-0.6601104736328125
2024-06-20T17:38:01.713+02:00,3788.396389375,0.1862640380859375,-0.5005645751953125,-0.649322509765625
2024-06-20T17:38:01.723+02:00,3788.406447375,0.1815032958984375,-0.4871826171875,-0.628082275390625
2024-06-20T17:38:01.733+02:00,3788.416505375,0.1894683837890625,-0.5045013427734375,-0.6283721923828125
2024-06-20T17:38:01.743+02:00,3788.426562375,0.2118988037109375,-0.557586669921875,-0.639068603515625
2024-06-20T17:38:01.753+02:00,3788.436620375,0.2300567626953125,-0.6043853759765625,-0.6676483154296875
2024-06-20T17:38:01.763+02:00,3788.446678375,0.2342987060546875,-0.6160736083984375,-0.685760498046875
2024-06-20T17:38:01.773+02:00,3788.45673725,0.22930908203125,-0.6287689208984375,-0.7012176513671875
2024-06-20T17:38:01.783+02:00,3788.46679425,0.2080230712890625,-0.6234588623046875,-0.722991943359375
2024-06-20T17:38:01.793+02:00,3788.47685225,0.171295166015625,-0.5794677734375,-0.7389678955078125
2024-06-20T17:38:01.803+02:00,3788.48691025,0.1450042724609375,-0.5294952392578125,-0.74169921875
2024-06-20T17:38:01.814+02:00,3788.49696725,0.143402099609375,-0.4970703125,-0.733001708984375
2024-06-20T17:38:01.824+02:00,3788.50702525,0.15191650390625,-0.4893341064453125,-0.727783203125
2024-06-20T17:38:01.834+02:00,3788.51708325,0.161712646484375,-0.4984130859375,-0.723419189453125
2024-06-20T17:38:01.844+02:00,3788.52714125,0.1699371337890625,-0.521209716796875,-0.688018798828125
2024-06-20T17:38:01.854+02:00,3788.53719825,0.1824188232421875,-0.5450286865234375,-0.6835479736328125
2024-06-20T17:38:01.864+02:00,3788.54725625,0.1939544677734375,-0.58001708984375,-0.695648193359375
2024-06-20T17:38:01.874+02:00,3788.55731425,0.1957550048828125,-0.6334991455078125,-0.706878662109375
2024-06-20T17:38:01.884+02:00,3788.56737125,0.1947479248046875,-0.67156982421875,-0.715576171875
2024-06-20T17:38:01.894+02:00,3788.57742925,0.1984710693359375,-0.6473236083984375,-0.6924896240234375
2024-06-20T17:38:01.904+02:00,3788.58748725,0.2294921875,-0.4798583984375,-0.6149139404296875
2024-06-20T17:38:01.914+02:00,3788.59754425,0.2673797607421875,-0.3460235595703125,-0.64739990234375
2024-06-20T17:38:01.924+02:00,3788.60760225,0.2631072998046875,-0.3688507080078125,-0.6641082763671875
2024-06-20T17:38:01.934+02:00,3788.61766025,0.204864501953125,-0.457672119140625,-0.663360595703125
2024-06-20T17:38:01.946+02:00,3788.62771825,0.1378936767578125,-0.5302734375,-0.654052734375
2024-06-20T17:38:01.956+02:00,3788.63777525,0.1107635498046875,-0.55877685546875,-0.619781494140625
2024-06-20T17:38:01.965+02:00,3788.64783325,0.1328887939453125,-0.569122314453125,-0.625762939453125
2024-06-20T17:38:01.975+02:00,3788.65789125,0.150787353515625,-0.5663604736328125,-0.6541748046875
2024-06-20T17:38:01.985+02:00,3788.66794825,0.144683837890625,-0.520965576171875,-0.6835174560546875
2024-06-20T17:38:01.995+02:00,3788.67800625,0.1275787353515625,-0.4503021240234375,-0.6956024169921875
2024-06-20T17:38:02.005+02:00,3788.68806425,0.1063232421875,-0.4156494140625,-0.7215728759765625
2024-06-20T17:38:02.015+02:00,3788.69812225,0.0882720947265625,-0.4289093017578125,-0.720794677734375
2024-06-20T17:38:02.025+02:00,3788.70817925,0.07861328125,-0.476898193359375,-0.695953369140625
2024-06-20T17:38:02.035+02:00,3788.71823725,0.0675811767578125,-0.5201568603515625,-0.6647491455078125
2024-06-20T17:38:02.045+02:00,3788.72829525,0.0600433349609375,-0.530975341796875,-0.65234375
2024-06-20T17:38:02.055+02:00,3788.73835225,0.0472869873046875,-0.5219268798828125,-0.6726837158203125
2024-06-20T17:38:02.065+02:00,3788.74841025,0.02752685546875,-0.51123046875,-0.706878662109375
2024-06-20T17:38:02.075+02:00,3788.75846825,0.0047607421875,-0.4794158935546875,-0.7249298095703125
2024-06-20T17:38:02.085+02:00,3788.76852625,-0.0007171630859375,-0.4148101806640625,-0.664703369140625
2024-06-20T17:38:02.095+02:00,3788.77858325,0.0059661865234375,-0.312286376953125,-0.5361785888671875
2024-06-20T17:38:02.106+02:00,3788.78864125,0.019866943359375,-0.17877197265625,-0.4198150634765625
2024-06-20T17:38:02.116+02:00,3788.79869925,0.013214111328125,-0.1150054931640625,-0.4042510986328125
2024-06-20T17:38:02.126+02:00,3788.80875625,-0.0115509033203125,-0.1364898681640625,-0.4331817626953125
2024-06-20T17:38:02.136+02:00,3788.81881425,-0.045745849609375,-0.1468505859375,-0.4147491455078125
2024-06-20T17:38:02.146+02:00,3788.82887225,-0.072845458984375,-0.1275634765625,-0.387908935546875
2024-06-20T17:38:02.156+02:00,3788.83893025,-0.097747802734375,-0.104583740234375,-0.441864013671875
2024-06-20T17:38:02.166+02:00,3788.84898725,-0.1257476806640625,-0.102569580078125,-0.5121002197265625
2024-06-20T17:38:02.176+02:00,3788.85904525,-0.1490325927734375,-0.0863037109375,-0.4872589111328125
2024-06-20T17:38:02.186+02:00,3788.86910325,-0.156951904296875,-0.0548553466796875,-0.4818115234375
2024-06-20T17:38:02.196+02:00,3788.87916025,-0.1450347900390625,-0.0350189208984375,-0.4842071533203125
2024-06-20T17:38:02.206+02:00,3788.88921825,-0.099517822265625,-0.0321807861328125,-0.410919189453125
2024-06-20T17:38:02.216+02:00,3788.89927625,-0.0331268310546875,0.0106048583984375,-0.3357086181640625
2024-06-20T17:38:02.226+02:00,3788.90933425,0.020355224609375,0.0284881591796875,-0.3191375732421875
2024-06-20T17:38:02.236+02:00,3788.91939125,0.05072021484375,-0.017486572265625,-0.3861541748046875
2024-06-20T17:38:02.246+02:00,3788.92944925,0.054962158203125,-0.0475921630859375,-0.50274658203125
2024-06-20T17:38:02.256+02:00,3788.93950725,0.05474853515625,-0.040374755859375,-0.5799713134765625
2024-06-20T17:38:02.267+02:00,3788.94956425,0.091949462890625,-0.014892578125,-0.6721954345703125
2024-06-20T17:38:02.276+02:00,3788.95962225,0.1774749755859375,-0.0020294189453125,-0.7105712890625
2024-06-20T17:38:02.286+02:00,3788.96968025,0.2920989990234375,-0.0367889404296875,-0.6916046142578125
2024-06-20T17:38:02.297+02:00,3788.97973825,0.4014129638671875,-0.0599517822265625,-0.64227294921875
2024-06-20T17:38:02.306+02:00,3788.98979525,0.506622314453125,-0.0452117919921875,-0.6160888671875
2024-06-20T17:38:02.317+02:00,3788.99985325,0.582061767578125,-0.033447265625,-0.6085357666015625
2024-06-20T17:38:02.327+02:00,3789.00991125,0.597564697265625,0.021575927734375,-0.691741943359375
2024-06-20T17:38:02.337+02:00,3789.01996825,0.531890869140625,0.139404296875,-0.943023681640625
2024-06-20T17:38:02.347+02:00,3789.03002625,0.37493896484375,0.3002471923828125,-1.2584228515625
2024-06-20T17:38:02.357+02:00,3789.04008425,0.1744384765625,0.4657745361328125,-1.381149291992188
2024-06-20T17:38:02.367+02:00,3789.05014225,0.0743865966796875,0.5423126220703125,-1.400604248046875
2024-06-20T17:38:02.377+02:00,3789.06019925,0.0687103271484375,0.53387451171875,-1.4559326171875
2024-06-20T17:38:02.387+02:00,3789.07025725,0.1189117431640625,0.5149688720703125,-1.492904663085938
2024-06-20T17:38:02.397+02:00,3789.08031525,0.1822662353515625,0.474761962890625,-1.52294921875
2024-06-20T17:38:02.407+02:00,3789.09037225,0.203399658203125,0.473907470703125,-1.571945190429688
2024-06-20T17:38:02.417+02:00,3789.10043025,0.170989990234375,0.527923583984375,-1.580673217773438
2024-06-20T17:38:02.427+02:00,3789.11048825,0.1114349365234375,0.5971527099609375,-1.589401245117188
2024-06-20T17:38:02.437+02:00,3789.12054625,0.058380126953125,0.68365478515625,-1.625961303710938
2024-06-20T17:38:02.451+02:00,3789.13060325,0.0525970458984375,0.737091064453125,-1.6571044921875
2024-06-20T17:38:02.458+02:00,3789.14066125,0.108154296875,0.7023773193359375,-1.661636352539062
2024-06-20T17:38:02.468+02:00,3789.15071925,0.182281494140625,0.6296234130859375,-1.611465454101562
2024-06-20T17:38:02.477+02:00,3789.16077625,0.2288970947265625,0.566741943359375,-1.522491455078125
2024-06-20T17:38:02.488+02:00,3789.17083425,0.23553466796875,0.5596923828125,-1.434097290039062
2024-06-20T17:38:02.498+02:00,3789.18089225,0.2250823974609375,0.6162109375,-1.426345825195312
2024-06-20T17:38:02.508+02:00,3789.19095025,0.2208099365234375,0.6815643310546875,-1.415573120117188
2024-06-20T17:38:02.518+02:00,3789.20100725,0.230712890625,0.726470947265625,-1.388320922851562
2024-06-20T17:38:02.528+02:00,3789.21106525,0.2554779052734375,0.720794677734375,-1.381591796875
2024-06-20T17:38:02.538+02:00,3789.22112325,0.2810821533203125,0.7099456787109375,-1.325973510742188
2024-06-20T17:38:02.548+02:00,3789.23118025,0.3156585693359375,0.6846771240234375,-1.280029296875
2024-06-20T17:38:02.558+02:00,3789.24123825,0.348175048828125,0.666351318359375,-1.272171020507812
2024-06-20T17:38:02.568+02:00,3789.25129625,0.363128662109375,0.692596435546875,-1.294952392578125
2024-06-20T17:38:02.578+02:00,3789.26135425,0.376739501953125,0.7064971923828125,-1.307388305664062
2024-06-20T17:38:02.588+02:00,3789.27141125,0.3862762451171875,0.7440032958984375,-1.292144775390625
2024-06-20T17:38:02.598+02:00,3789.28146925,0.3840789794921875,0.7834930419921875,-1.239425659179688
2024-06-20T17:38:02.608+02:00,3789.29152725,0.379913330078125,0.828369140625,-1.157135009765625
2024-06-20T17:38:02.618+02:00,3789.30158425,0.394866943359375,0.8523406982421875,-1.0721435546875
2024-06-20T17:38:02.629+02:00,3789.31164225,0.440155029296875,0.88031005859375,-0.9754180908203125
2024-06-20T17:38:02.638+02:00,3789.32170025,0.4899749755859375,0.9066314697265625,-0.8909912109375
2024-06-20T17:38:02.650+02:00,3789.33175825,0.5232391357421875,0.880462646484375,-0.8404388427734375
2024-06-20T17:38:02.664+02:00,3789.34181525,0.5143890380859375,0.7596282958984375,-0.7760467529296875
2024-06-20T17:38:02.670+02:00,3789.35187325,0.4575653076171875,0.57684326171875,-0.6942291259765625
2024-06-20T17:38:02.679+02:00,3789.36193125,0.4296875,0.5596466064453125,-0.659393310546875
2024-06-20T17:38:02.688+02:00,3789.37198925,0.4318695068359375,0.86590576171875,-0.6158294677734375
2024-06-20T17:38:02.699+02:00,3789.38204625,0.334716796875,0.8582611083984375,-0.5900115966796875
2024-06-20T17:38:02.709+02:00,3789.39210425,0.049346923828125,0.293731689453125,-0.32696533203125
2024-06-20T17:38:02.719+02:00,3789.40216225,-0.0731964111328125,-0.22979736328125,-0.716400146484375
2024-06-20T17:38:02.729+02:00,3789.41221925,-0.0379791259765625,-0.0762939453125,-0.5150146484375
2024-06-20T17:38:02.739+02:00,3789.42227725,0.109893798828125,0.534820556640625,0.172821044921875
2024-06-20T17:38:02.749+02:00,3789.43233525,0.38616943359375,0.759429931640625,-0.1182708740234375
2024-06-20T17:38:02.759+02:00,3789.44239325,0.5106964111328125,0.47332763671875,-0.8186798095703125
2024-06-20T17:38:02.769+02:00,3789.45245125,0.423858642578125,0.5030670166015625,-0.962860107421875
2024-06-20T17:38:02.779+02:00,3789.46250925,0.1289825439453125,1.088775634765625,-0.614166259765625
2024-06-20T17:38:02.789+02:00,3789.47256725,-0.0632476806640625,1.322967529296875,-0.5421142578125
2024-06-20T17:38:02.799+02:00,3789.48262425,-0.0240478515625,0.886260986328125,-0.5763702392578125
2024-06-20T17:38:02.809+02:00,3789.49268225,0.0645904541015625,0.6030731201171875,-0.526031494140625
2024-06-20T17:38:02.820+02:00,3789.50274025,0.08831787109375,0.619049072265625,-0.389984130859375
2024-06-20T17:38:02.830+02:00,3789.51279825,0.1134490966796875,0.6425018310546875,-0.44183349609375
2024-06-20T17:38:02.840+02:00,3789.52285525,0.1454315185546875,0.5739593505859375,-0.5520782470703125
2024-06-20T17:38:02.850+02:00,3789.53291325,0.1524810791015625,0.644134521484375,-0.5952606201171875
2024-06-20T17:38:02.860+02:00,3789.54297125,0.1316680908203125,0.798583984375,-0.6305694580078125
2024-06-20T17:38:02.870+02:00,3789.55302825,0.1010284423828125,0.91046142578125,-0.668792724609375
2024-06-20T17:38:02.880+02:00,3789.56308625,0.0680389404296875,0.9972076416015625,-0.7191162109375
2024-06-20T17:38:02.890+02:00,3789.57314425,0.0359039306640625,1.026260375976562,-0.724395751953125
2024-06-20T17:38:02.900+02:00,3789.58320225,0.0096588134765625,0.96856689453125,-0.6558990478515625
2024-06-20T17:38:02.910+02:00,3789.59325925,-0.01202392578125,0.9293975830078125,-0.547210693359375
2024-06-20T17:38:02.920+02:00,3789.60331725,-0.02410888671875,0.9349212646484375,-0.4726409912109375
2024-06-20T17:38:02.930+02:00,3789.61337525,-0.03253173828125,0.92401123046875,-0.439453125
2024-06-20T17:38:02.940+02:00,3789.62343325,-0.0345611572265625,0.936859130859375,-0.419219970703125
2024-06-20T17:38:02.955+02:00,3789.63349025,-0.0326995849609375,0.93536376953125,-0.4415740966796875
2024-06-20T17:38:02.960+02:00,3789.64354825,-0.0220489501953125,0.96759033203125,-0.4628143310546875
2024-06-20T17:38:02.971+02:00,3789.65360625,-0.0104522705078125,1.175155639648438,-0.5330810546875
2024-06-20T17:38:02.981+02:00,3789.66366325,-0.0148773193359375,1.321685791015625,-0.613616943359375
2024-06-20T17:38:02.991+02:00,3789.67372125,-0.0488128662109375,1.2425537109375,-0.652679443359375
2024-06-20T17:38:03.001+02:00,3789.68377925,-0.0935211181640625,1.091888427734375,-0.5882568359375
2024-06-20T17:38:03.011+02:00,3789.69383725,-0.114349365234375,0.9842681884765625,-0.432098388671875
2024-06-20T17:38:03.021+02:00,3789.70389425,-0.109375,0.9940185546875,-0.3160552978515625
2024-06-20T17:38:03.031+02:00,3789.71395225,-0.071533203125,1.097274780273438,-0.2720794677734375
2024-06-20T17:38:03.041+02:00,3789.72401025,-0.0103759765625,1.186248779296875,-0.2232513427734375
2024-06-20T17:38:03.051+02:00,3789.73406725,0.0204315185546875,1.328857421875,-0.2496795654296875
2024-06-20T17:38:03.061+02:00,3789.74412525,0.013031005859375,1.642440795898438,-0.3271942138671875
2024-06-20T17:38:03.071+02:00,3789.75418325,-0.0566253662109375,1.859420776367188,-0.4332122802734375
2024-06-20T17:38:03.081+02:00,3789.76424125,-0.1809234619140625,1.700042724609375,-0.5561981201171875
2024-06-20T17:38:03.091+02:00,3789.77429825,-0.233795166015625,1.397659301757812,-0.5573577880859375
2024-06-20T17:38:03.101+02:00,3789.78435625,-0.1177215576171875,1.143035888671875,-0.452239990234375
2024-06-20T17:38:03.111+02:00,3789.79441425,0.1283111572265625,1.003128051757812,-0.458709716796875
2024-06-20T17:38:03.121+02:00,3789.80447225,0.4063262939453125,0.995849609375,-0.5118255615234375
2024-06-20T17:38:03.131+02:00,3789.81452925,0.5817413330078125,1.025680541992188,-0.502716064453125
2024-06-20T17:38:03.141+02:00,3789.82458725,0.58197021484375,1.030990600585938,-0.4334259033203125
2024-06-20T17:38:03.151+02:00,3789.83464525,0.4705657958984375,1.016403198242188,-0.3222198486328125
2024-06-20T17:38:03.161+02:00,3789.84470225,0.3261871337890625,1.002456665039062,-0.2384490966796875
2024-06-20T17:38:03.171+02:00,3789.85476025,0.2022247314453125,1.09765625,-0.15106201171875
2024-06-20T17:38:03.182+02:00,3789.86481825,0.1511688232421875,1.268203735351562,-0.108184814453125
2024-06-20T17:38:03.192+02:00,3789.87487625,0.195220947265625,1.424057006835938,-0.15008544921875
2024-06-20T17:38:03.202+02:00,3789.88493325,0.2861328125,1.497695922851562,-0.2718505859375
2024-06-20T17:38:03.212+02:00,3789.89499125,0.352020263671875,1.433624267578125,-0.406982421875
2024-06-20T17:38:03.223+02:00,3789.90504925,0.3621063232421875,1.280776977539062,-0.412567138671875
2024-06-20T17:38:03.232+02:00,3789.91510625,0.362030029296875,1.051712036132812,-0.362823486328125
2024-06-20T17:38:03.242+02:00,3789.92516425,0.3856048583984375,0.773284912109375,-0.2620391845703125
2024-06-20T17:38:03.252+02:00,3789.93522225,0.4355926513671875,0.5414886474609375,-0.1879425048828125
2024-06-20T17:38:03.262+02:00,3789.94528025,0.5064239501953125,0.391845703125,-0.1167449951171875
2024-06-20T17:38:03.272+02:00,3789.95533725,0.5703125,0.3871917724609375,-0.031097412109375
2024-06-20T17:38:03.282+02:00,3789.96539525,0.5983734130859375,0.4079132080078125,-0.075897216796875
2024-06-20T17:38:03.292+02:00,3789.97545325,0.57318115234375,0.4525146484375,-0.16253662109375
2024-06-20T17:38:03.302+02:00,3789.98551125,0.516448974609375,0.533355712890625,-0.2510833740234375
2024-06-20T17:38:03.312+02:00,3789.99556825,0.451690673828125,0.58599853515625,-0.3362884521484375
2024-06-20T17:38:03.322+02:00,3790.00562625,0.3861083984375,0.5598907470703125,-0.355224609375
2024-06-20T17:38:03.332+02:00,3790.01568425,0.3306884765625,0.5249786376953125,-0.3008575439453125
2024-06-20T17:38:03.342+02:00,3790.02574125,0.311004638671875,0.4639434814453125,-0.2711639404296875
2024-06-20T17:38:03.353+02:00,3790.03579925,0.299530029296875,0.403778076171875,-0.2630157470703125
2024-06-20T17:38:03.363+02:00,3790.04585725,0.2755889892578125,0.3844146728515625,-0.269317626953125
2024-06-20T17:38:03.373+02:00,3790.05591525,0.257049560546875,0.422210693359375,-0.258087158203125
2024-06-20T17:38:03.383+02:00,3790.06597225,0.2690277099609375,0.5354156494140625,-0.2507171630859375
2024-06-20T17:38:03.393+02:00,3790.07603025,0.304962158203125,0.6068267822265625,-0.2926788330078125
2024-06-20T17:38:03.403+02:00,3790.08608825,0.3439483642578125,0.61334228515625,-0.3484039306640625
2024-06-20T17:38:03.413+02:00,3790.09614525,0.3803253173828125,0.5956878662109375,-0.34893798828125
2024-06-20T17:38:03.423+02:00,3790.10620325,0.421875,0.543060302734375,-0.3338775634765625
2024-06-20T17:38:03.433+02:00,3790.11626125,0.480712890625,0.500640869140625,-0.3196258544921875
2024-06-20T17:38:03.443+02:00,3790.12631925,0.5546722412109375,0.46124267578125,-0.3097381591796875
2024-06-20T17:38:03.453+02:00,3790.13637625,0.63482666015625,0.456787109375,-0.2747039794921875
2024-06-20T17:38:03.463+02:00,3790.14643425,0.711639404296875,0.4746551513671875,-0.2677154541015625
2024-06-20T17:38:03.473+02:00,3790.15649225,0.772552490234375,0.52569580078125,-0.2245635986328125
2024-06-20T17:38:03.483+02:00,3790.16655025,0.7872467041015625,0.5637969970703125,-0.1827239990234375
2024-06-20T17:38:03.493+02:00,3790.17660725,0.7611236572265625,0.5324554443359375,-0.1995849609375
2024-06-20T17:38:03.503+02:00,3790.18666525,0.740814208984375,0.5306854248046875,-0.21478271484375
2024-06-20T17:38:03.513+02:00,3790.19672325,0.7422637939453125,0.54705810546875,-0.1852264404296875
2024-06-20T17:38:03.523+02:00,3790.20678125,0.77410888671875,0.5368499755859375,-0.162078857421875
2024-06-20T17:38:03.534+02:00,3790.21683825,0.813201904296875,0.502410888671875,-0.1330108642578125
2024-06-20T17:38:03.543+02:00,3790.22689625,0.84637451171875,0.477752685546875,-0.1279296875
2024-06-20T17:38:03.554+02:00,3790.23695425,0.854217529296875,0.4943389892578125,-0.11126708984375
2024-06-20T17:38:03.564+02:00,3790.24701125,0.845672607421875,0.5560760498046875,-0.0610504150390625
2024-06-20T17:38:03.574+02:00,3790.25706925,0.854034423828125,0.6014556884765625,-0.004791259765625
2024-06-20T17:38:03.584+02:00,3790.26712725,0.8680572509765625,0.600372314453125,0.0406341552734375
2024-06-20T17:38:03.594+02:00,3790.27718525,0.8776092529296875,0.57537841796875,0.0705413818359375
2024-06-20T17:38:03.604+02:00,3790.28724225,0.8770294189453125,0.5325775146484375,0.10455322265625
2024-06-20T17:38:03.614+02:00,3790.29730025,0.8719024658203125,0.5015106201171875,0.1550140380859375
2024-06-20T17:38:03.624+02:00,3790.30735825,0.8631439208984375,0.4905853271484375,0.1799774169921875
2024-06-20T17:38:03.634+02:00,3790.31741625,0.853485107421875,0.4969329833984375,0.209442138671875
2024-06-20T17:38:03.644+02:00,3790.32747325,0.852691650390625,0.5530548095703125,0.2515106201171875
2024-06-20T17:38:03.654+02:00,3790.33753125,0.8653106689453125,0.63092041015625,0.2853546142578125
2024-06-20T17:38:03.664+02:00,3790.34758925,0.8708648681640625,0.699371337890625,0.3023223876953125
2024-06-20T17:38:03.675+02:00,3790.35764625,0.8419189453125,0.7115325927734375,0.31640625
2024-06-20T17:38:03.684+02:00,3790.36770425,0.7895965576171875,0.7004852294921875,0.3516082763671875
2024-06-20T17:38:03.710+02:00,3790.37776225,0.7491912841796875,0.6560516357421875,0.400115966796875
2024-06-20T17:38:03.711+02:00,3790.38782025,0.753021240234375,0.6111602783203125,0.484222412109375
2024-06-20T17:38:03.715+02:00,3790.39787725,0.7891845703125,0.5976715087890625,0.5654144287109375
2024-06-20T17:38:03.724+02:00,3790.40793525,0.8316192626953125,0.6400909423828125,0.71563720703125
2024-06-20T17:38:03.735+02:00,3790.41799325,0.859893798828125,0.7080535888671875,0.781341552734375
2024-06-20T17:38:03.745+02:00,3790.42805125,0.8659210205078125,0.77227783203125,0.7738037109375
2024-06-20T17:38:03.755+02:00,3790.43810825,0.7553253173828125,0.8230438232421875,0.7154388427734375
2024-06-20T17:38:03.765+02:00,3790.44816625,0.587554931640625,0.8503875732421875,0.4495391845703125
2024-06-20T17:38:03.775+02:00,3790.458223,0.4212799072265625,1.038299560546875,0.174591064453125
2024-06-20T17:38:03.785+02:00,3790.468281,0.283294677734375,1.191925048828125,-0.1986236572265625
2024-06-20T17:38:03.795+02:00,3790.478338,0.192962646484375,1.291412353515625,-0.563262939453125
2024-06-20T17:38:03.805+02:00,3790.488396,0.16217041015625,1.380340576171875,-0.9566650390625
2024-06-20T17:38:03.815+02:00,3790.498454,0.2951202392578125,1.579147338867188,-1.229812622070312
2024-06-20T17:38:03.825+02:00,3790.508511,0.5565185546875,1.694625854492188,-1.461471557617188
2024-06-20T17:38:03.835+02:00,3790.518569,0.811798095703125,1.409072875976562,-1.405120849609375
2024-06-20T17:38:03.845+02:00,3790.528627,1.016204833984375,0.8964385986328125,1.710662841796875
2024-06-20T17:38:03.855+02:00,3790.538685,1.321334838867188,-1.905288696289062,2.342086791992188
2024-06-20T17:38:03.866+02:00,3790.548742,-3.008163452148438,-8.137786865234375,-6.362686157226562
2024-06-20T17:38:03.876+02:00,3790.5588,-4.806015014648438,1.567825317382812,-4.284622192382812
2024-06-20T17:38:03.886+02:00,3790.568858,-4.66033935546875,4.140335083007812,-4.416793823242188
2024-06-20T17:38:03.896+02:00,3790.578916,-0.81884765625,3.0177001953125,-1.943527221679688
2024-06-20T17:38:03.906+02:00,3790.588973,0.9225311279296875,1.502182006835938,-0.98297119140625
2024-06-20T17:38:03.916+02:00,3790.599031,1.75531005859375,1.788848876953125,-0.1422119140625
2024-06-20T17:38:03.926+02:00,3790.609089,2.6005859375,1.450836181640625,-0.0580596923828125
2024-06-20T17:38:03.936+02:00,3790.619146,2.60858154296875,0.9600982666015625,0.1165771484375
2024-06-20T17:38:03.946+02:00,3790.629204,1.525787353515625,1.0086669921875,0.424346923828125
2024-06-20T17:38:03.956+02:00,3790.639262,0.68804931640625,1.018112182617188,0.14825439453125
2024-06-20T17:38:03.966+02:00,3790.64932,0.4855804443359375,0.728729248046875,-0.12591552734375
2024-06-20T17:38:03.976+02:00,3790.659377,0.61700439453125,0.425323486328125,-0.1593780517578125
2024-06-20T17:38:03.986+02:00,3790.669435,0.8293609619140625,0.2899169921875,-0.1711578369140625
2024-06-20T17:38:03.996+02:00,3790.679493,0.924285888671875,0.2306976318359375,-0.294097900390625
2024-06-20T17:38:04.006+02:00,3790.689551,0.7671356201171875,0.1528778076171875,-0.5472259521484375
2024-06-20T17:38:04.016+02:00,3790.699608,0.5137481689453125,0.056396484375,-0.805908203125
2024-06-20T17:38:04.026+02:00,3790.709666,0.376922607421875,0.0574798583984375,-0.8795013427734375
2024-06-20T17:38:04.036+02:00,3790.719724,0.361541748046875,0.1673736572265625,-0.827423095703125
2024-06-20T17:38:04.046+02:00,3790.729782,0.4057464599609375,0.3209381103515625,-0.7853240966796875
2024-06-20T17:38:04.057+02:00,3790.739839,0.458160400390625,0.5607757568359375,-0.68988037109375
2024-06-20T17:38:04.067+02:00,3790.749897,0.4876556396484375,0.7415313720703125,-0.6063079833984375
2024-06-20T17:38:04.077+02:00,3790.759955,0.485198974609375,0.774749755859375,-0.5433349609375
2024-06-20T17:38:04.087+02:00,3790.770013,0.483734130859375,0.6857147216796875,-0.510833740234375
2024-06-20T17:38:04.097+02:00,3790.78007,0.4867706298828125,0.639984130859375,-0.4713592529296875
2024-06-20T17:38:04.107+02:00,3790.790128,0.519195556640625,0.662445068359375,-0.4889068603515625
2024-06-20T17:38:04.117+02:00,3790.800186,0.5775909423828125,0.6879119873046875,-0.550384521484375
2024-06-20T17:38:04.127+02:00,3790.810243,0.633544921875,0.646942138671875,-0.5991973876953125
2024-06-20T17:38:04.137+02:00,3790.820301,0.668853759765625,0.529998779296875,-0.64105224609375
2024-06-20T17:38:04.147+02:00,3790.830359,0.6769866943359375,0.451873779296875,-0.6238250732421875
2024-06-20T17:38:04.157+02:00,3790.840417,0.6774444580078125,0.4407958984375,-0.5985107421875
2024-06-20T17:38:04.167+02:00,3790.850474,0.6831817626953125,0.4872894287109375,-0.5474700927734375
2024-06-20T17:38:04.177+02:00,3790.860532,0.6844329833984375,0.566925048828125,-0.4944915771484375
2024-06-20T17:38:04.187+02:00,3790.87059,0.6760406494140625,0.6056365966796875,-0.47021484375
2024-06-20T17:38:04.197+02:00,3790.880648,0.66485595703125,0.6207122802734375,-0.4266815185546875
2024-06-20T17:38:04.207+02:00,3790.890705,0.6690521240234375,0.615509033203125,-0.414520263671875
2024-06-20T17:38:04.217+02:00,3790.900763,0.67230224609375,0.6035003662109375,-0.462646484375
2024-06-20T17:38:04.228+02:00,3790.910821,0.6666412353515625,0.585052490234375,-0.5031585693359375
2024-06-20T17:38:04.238+02:00,3790.920879,0.66204833984375,0.5492095947265625,-0.5025177001953125
2024-06-20T17:38:04.248+02:00,3790.930936,0.66900634765625,0.5048065185546875,-0.5213165283203125
2024-06-20T17:38:04.258+02:00,3790.940994,0.68804931640625,0.5054168701171875,-0.5363311767578125
2024-06-20T17:38:04.268+02:00,3790.951052,0.7089996337890625,0.5293426513671875,-0.54449462890625
2024-06-20T17:38:04.278+02:00,3790.96111,0.7271728515625,0.5518035888671875,-0.5214385986328125
2024-06-20T17:38:04.288+02:00,3790.971167,0.7306671142578125,0.5429840087890625,-0.4718017578125
2024-06-20T17:38:04.298+02:00,3790.981225,0.730926513671875,0.5472564697265625,-0.42437744140625
2024-06-20T17:38:04.308+02:00,3790.991283,0.7291717529296875,0.5687255859375,-0.40777587890625
2024-06-20T17:38:04.318+02:00,3791.001341,0.7239532470703125,0.58221435546875,-0.419464111328125
2024-06-20T17:38:04.328+02:00,3791.011398,0.71533203125,0.5678558349609375,-0.4552001953125
2024-06-20T17:38:04.338+02:00,3791.021456,0.70513916015625,0.5267181396484375,-0.496002197265625
2024-06-20T17:38:04.348+02:00,3791.031514,0.6939849853515625,0.455352783203125,-0.538970947265625
2024-06-20T17:38:04.358+02:00,3791.041571,0.6793670654296875,0.3964691162109375,-0.550567626953125
2024-06-20T17:38:04.369+02:00,3791.051629,0.671966552734375,0.37060546875,-0.540069580078125
2024-06-20T17:38:04.378+02:00,3791.061687,0.6718902587890625,0.3888702392578125,-0.5253143310546875
2024-06-20T17:38:04.389+02:00,3791.071745,0.661956787109375,0.470611572265625,-0.5132293701171875
2024-06-20T17:38:04.399+02:00,3791.081802,0.641845703125,0.5341949462890625,-0.506439208984375
2024-06-20T17:38:04.409+02:00,3791.09186,0.6192474365234375,0.5731201171875,-0.4834442138671875
2024-06-20T17:38:04.419+02:00,3791.101918,0.6074371337890625,0.5881500244140625,-0.4564208984375
2024-06-20T17:38:04.429+02:00,3791.111976,0.6179351806640625,0.6095428466796875,-0.4474945068359375
2024-06-20T17:38:04.439+02:00,3791.122033,0.6455535888671875,0.639190673828125,-0.4486846923828125
2024-06-20T17:38:04.449+02:00,3791.132091,0.66424560546875,0.61395263671875,-0.4759521484375
2024-06-20T17:38:04.459+02:00,3791.142149,0.6682891845703125,0.56341552734375,-0.50360107421875
2024-06-20T17:38:04.469+02:00,3791.152207,0.6554718017578125,0.4906005859375,-0.5374755859375
2024-06-20T17:38:04.479+02:00,3791.162264,0.63262939453125,0.4106292724609375,-0.5475311279296875
2024-06-20T17:38:04.489+02:00,3791.172322,0.62078857421875,0.3933868408203125,-0.5413665771484375
2024-06-20T17:38:04.499+02:00,3791.18238,0.6185455322265625,0.427093505859375,-0.5255584716796875
2024-06-20T17:38:04.509+02:00,3791.192438,0.6428070068359375,0.4742889404296875,-0.4951171875
2024-06-20T17:38:04.519+02:00,3791.202495,0.68902587890625,0.5310821533203125,-0.4571685791015625
2024-06-20T17:38:04.529+02:00,3791.212553,0.7133941650390625,0.58319091796875,-0.45172119140625
2024-06-20T17:38:04.539+02:00,3791.222611,0.7024688720703125,0.6298065185546875,-0.464630126953125
2024-06-20T17:38:04.549+02:00,3791.232669,0.672607421875,0.615997314453125,-0.4885406494140625
2024-06-20T17:38:04.559+02:00,3791.242726,0.6471710205078125,0.554046630859375,-0.5062408447265625
2024-06-20T17:38:04.570+02:00,3791.252784,0.638092041015625,0.4929962158203125,-0.5181732177734375
2024-06-20T17:38:04.580+02:00,3791.262842,0.64227294921875,0.4649658203125,-0.534271240234375
2024-06-20T17:38:04.590+02:00,3791.2729,0.65594482421875,0.4581146240234375,-0.5525970458984375
2024-06-20T17:38:04.600+02:00,3791.282957,0.6649169921875,0.4492034912109375,-0.564361572265625
2024-06-20T17:38:04.610+02:00,3791.293015,0.6630859375,0.4608001708984375,-0.53582763671875
2024-06-20T17:38:04.620+02:00,3791.303073,0.6723785400390625,0.48834228515625,-0.5131988525390625
2024-06-20T17:38:04.630+02:00,3791.31313,0.686431884765625,0.51361083984375,-0.5061492919921875
2024-06-20T17:38:04.640+02:00,3791.323188,0.6837615966796875,0.514495849609375,-0.528167724609375
2024-06-20T17:38:04.650+02:00,3791.333246,0.66290283203125,0.5189056396484375,-0.5594482421875
2024-06-20T17:38:04.660+02:00,3791.343304,0.6266326904296875,0.5172271728515625,-0.5865936279296875
2024-06-20T17:38:04.671+02:00,3791.353361,0.581146240234375,0.4798126220703125,-0.6285552978515625
2024-06-20T17:38:04.680+02:00,3791.363419,0.5250244140625,0.4307403564453125,-0.63421630859375
2024-06-20T17:38:04.691+02:00,3791.373477,0.4678192138671875,0.374420166015625,-0.6205596923828125
2024-06-20T17:38:04.709+02:00,3791.383535,0.429595947265625,0.357452392578125,-0.5907135009765625
2024-06-20T17:38:04.712+02:00,3791.393592,0.4314117431640625,0.3806610107421875,-0.5497589111328125
2024-06-20T17:38:04.720+02:00,3791.40365,0.4789581298828125,0.4013671875,-0.5387115478515625
2024-06-20T17:38:04.730+02:00,3791.413708,0.5481719970703125,0.396759033203125,-0.5514068603515625
2024-06-20T17:38:04.740+02:00,3791.423766,0.59222412109375,0.386260986328125,-0.560089111328125
2024-06-20T17:38:04.751+02:00,3791.433823,0.57733154296875,0.403167724609375,-0.542022705078125
2024-06-20T17:38:04.761+02:00,3791.443881,0.524322509765625,0.4295654296875,-0.53173828125
2024-06-20T17:38:04.771+02:00,3791.453939125,0.453277587890625,0.4397430419921875,-0.5428009033203125
2024-06-20T17:38:04.781+02:00,3791.463997125,0.3874969482421875,0.46417236328125,-0.549285888671875
2024-06-20T17:38:04.791+02:00,3791.474054125,0.333343505859375,0.4905242919921875,-0.540496826171875
2024-06-20T17:38:04.801+02:00,3791.484112125,0.298004150390625,0.4921875,-0.5356597900390625
2024-06-20T17:38:04.811+02:00,3791.494170125,0.2790985107421875,0.49951171875,-0.5224151611328125
2024-06-20T17:38:04.821+02:00,3791.504228125,0.266632080078125,0.52655029296875,-0.52093505859375
2024-06-20T17:38:04.831+02:00,3791.514285125,0.2538909912109375,0.5716705322265625,-0.52642822265625
2024-06-20T17:38:04.841+02:00,3791.524343125,0.232757568359375,0.578338623046875,-0.5457611083984375
2024-06-20T17:38:04.851+02:00,3791.534401125,0.1969146728515625,0.5155181884765625,-0.5899200439453125
2024-06-20T17:38:04.861+02:00,3791.544459125,0.1758880615234375,0.54388427734375,-0.5910797119140625
2024-06-20T17:38:04.871+02:00,3791.554516125,0.1437835693359375,0.596832275390625,-0.5550689697265625
2024-06-20T17:38:04.881+02:00,3791.564574125,0.10491943359375,0.57647705078125,-0.5476226806640625
2024-06-20T17:38:04.891+02:00,3791.574632125,0.086151123046875,0.6069183349609375,-0.51617431640625
2024-06-20T17:38:04.901+02:00,3791.584690125,0.0885772705078125,0.67315673828125,-0.453826904296875
2024-06-20T17:38:04.912+02:00,3791.594747125,0.1034393310546875,0.7040557861328125,-0.390106201171875
2024-06-20T17:38:04.922+02:00,3791.604805125,0.106903076171875,0.7116851806640625,-0.2908782958984375
2024-06-20T17:38:04.932+02:00,3791.614863125,0.063385009765625,0.60546875,-0.336151123046875
2024-06-20T17:38:04.942+02:00,3791.624921125,0.01300048828125,0.562713623046875,-0.42291259765625
2024-06-20T17:38:04.952+02:00,3791.634978125,-0.033966064453125,0.6975555419921875,-0.4013671875
2024-06-20T17:38:04.962+02:00,3791.645036125,-0.0994873046875,0.7950897216796875,-0.461273193359375
2024-06-20T17:38:04.972+02:00,3791.655094125,-0.159820556640625,0.775421142578125,-0.629425048828125
2024-06-20T17:38:04.982+02:00,3791.665152125,-0.1785430908203125,0.80670166015625,-0.656524658203125
2024-06-20T17:38:04.992+02:00,3791.675209125,-0.1884765625,0.98577880859375,-0.60235595703125
2024-06-20T17:38:05.002+02:00,3791.685267125,-0.1930084228515625,1.02349853515625,-0.6288604736328125
2024-06-20T17:38:05.012+02:00,3791.695325125,-0.151885986328125,0.95538330078125,-0.50872802734375
2024-06-20T17:38:05.022+02:00,3791.705382125,-0.0941314697265625,0.966766357421875,-0.35345458984375
2024-06-20T17:38:05.032+02:00,3791.715440125,-0.0360870361328125,1.0595703125,-0.2192840576171875
2024-06-20T17:38:05.042+02:00,3791.725498125,0.0399017333984375,1.237503051757812,-0.1848297119140625
2024-06-20T17:38:05.052+02:00,3791.735556125,0.1151275634765625,1.309310913085938,-0.2431182861328125
2024-06-20T17:38:05.062+02:00,3791.745614125,0.1768341064453125,1.254852294921875,-0.3831634521484375
2024-06-20T17:38:05.072+02:00,3791.755671125,0.2020111083984375,1.238510131835938,-0.5324554443359375
2024-06-20T17:38:05.082+02:00,3791.765729125,0.1497802734375,1.197677612304688,-0.634796142578125
2024-06-20T17:38:05.093+02:00,3791.775787125,0.038177490234375,1.194198608398438,-0.70245361328125
2024-06-20T17:38:05.103+02:00,3791.785844125,-0.079864501953125,1.211639404296875,-0.81005859375
2024-06-20T17:38:05.113+02:00,3791.795902125,-0.17938232421875,1.20867919921875,-0.8531646728515625
2024-06-20T17:38:05.123+02:00,3791.805960125,-0.2547149658203125,1.250534057617188,-0.7794342041015625
2024-06-20T17:38:05.133+02:00,3791.816018125,-0.3004150390625,1.30517578125,-0.700225830078125
2024-06-20T17:38:05.143+02:00,3791.826075125,-0.2974395751953125,1.389801025390625,-0.6703338623046875
2024-06-20T17:38:05.153+02:00,3791.836133125,-0.23455810546875,1.551345825195312,-0.6291656494140625
2024-06-20T17:38:05.163+02:00,3791.846191125,-0.1356048583984375,1.606689453125,-0.6045684814453125
2024-06-20T17:38:05.173+02:00,3791.856249125,-0.02447509765625,1.526931762695312,-0.6288909912109375
2024-06-20T17:38:05.183+02:00,3791.866306125,0.0737152099609375,1.388839721679688,-0.650054931640625
2024-06-20T17:38:05.193+02:00,3791.876364125,0.1421661376953125,1.234603881835938,-0.66192626953125
2024-06-20T17:38:05.203+02:00,3791.886422125,0.1703643798828125,1.099609375,-0.670440673828125
